onset	duration	movement_onset	EV	action	block_duration	experiment_exp_id	gain_amount	gain_probability	key_press	loss_amount	loss_probability	num_cards	num_click_in_round	num_loss_cards	risk	response_time	total_cards	trial_id	trial_type	worker_id	junk	feedback
3.013	5.181	8.194	-0.3150782029364831	draw_card	5.181	columbia_card_task_fmri	12.0	0.8333333333333334	89.0	-70.0	0.1666666666666666	6.0	1.0	1.0	-2.3638453653668208	5.181	n/a	stim	poldrack-single-stim	s627	False	1
8.196	2.514	10.71	-3.048411536269816	draw_card	2.514	columbia_card_task_fmri	12.0	0.8	89.0	-70.0	0.2	6.0	2.0	1.0	-0.1254798351632899	2.514	n/a	stim	poldrack-single-stim	s627	False	1
10.711	1.746	12.457	-7.148411536269817	draw_card	1.746	columbia_card_task_fmri	12.0	0.75	89.0	-70.0	0.25	6.0	3.0	1.0	2.579441143551371	1.746	n/a	stim	poldrack-single-stim	s627	False	1
12.458	1.635	14.093	-13.98174486960315	draw_card	1.635	columbia_card_task_fmri	12.0	0.6666666666666667	89.0	-70.0	0.3333333333333333	6.0	4.0	1.0	5.725477361276504	1.635	n/a	stim	poldrack-single-stim	s627	False	1
14.094	1.722	15.816	-27.648411536269816	end_round	1.722	columbia_card_task_fmri	12.0	0.5	71.0	-70.0	0.5	6.0	5.0	1.0	8.068956441006819	1.722	4.0	stim	poldrack-single-stim	s627	False	1
16.57	1.5	15.819	n/a	-1.0	2.25	columbia_card_task_fmri	n/a	n/a	-1.0	n/a	n/a	n/a	n/a	n/a	n/a	n/a	n/a	ITI	poldrack-single-stim	s627	False	0
18.072	5.811	23.883	0.5182551303968508	draw_card	5.811	columbia_card_task_fmri	14.0	0.8333333333333334	89.0	-75.0	0.1666666666666666	6.0	1.0	1.0	0.2425529682408083	5.811	n/a	stim	poldrack-single-stim	s627	False	1
23.886	1.528	25.414	-2.448411536269816	draw_card	1.528	columbia_card_task_fmri	14.0	0.8	89.0	-75.0	0.2	6.0	2.0	1.0	2.6723324898753447	1.528	n/a	stim	poldrack-single-stim	s627	False	1
25.415	1.365	26.78	-6.898411536269817	draw_card	1.365	columbia_card_task_fmri	14.0	0.75	89.0	-75.0	0.25	6.0	3.0	1.0	5.60850882111324	1.365	n/a	stim	poldrack-single-stim	s627	False	1
26.781	1.5	28.281	-14.315078202936483	end_round	1.5	columbia_card_task_fmri	14.0	0.6666666666666667	71.0	-75.0	0.3333333333333333	6.0	4.0	1.0	9.023452092481136	1.5	3.0	stim	poldrack-single-stim	s627	False	1
29.037	1.5	28.286	n/a	-1.0	2.386	columbia_card_task_fmri	n/a	n/a	-1.0	n/a	n/a	n/a	n/a	n/a	n/a	n/a	n/a	ITI	poldrack-single-stim	s627	False	0
30.674	4.477	35.151	2.1849217970635166	draw_card	4.477	columbia_card_task_fmri	15.0	0.8333333333333334	89.0	-70.0	0.1666666666666666	6.0	1.0	1.0	-1.2468647911120383	4.477	n/a	stim	poldrack-single-stim	s627	False	1
35.152	1.891	37.043	-0.6484115362698171	draw_card	1.891	columbia_card_task_fmri	15.0	0.8	89.0	-70.0	0.2	6.0	2.0	1.0	1.073538520749132	1.891	2.0	stim	poldrack-single-stim	s627	False	0
37.799	1.5	37.048	n/a	-1.0	2.59	columbia_card_task_fmri	n/a	n/a	-1.0	n/a	n/a	n/a	n/a	n/a	n/a	n/a	n/a	ITI	poldrack-single-stim	s627	False	0
39.639	2.156	41.795	3.0182551303968506	draw_card	2.156	columbia_card_task_fmri	17.0	0.8333333333333334	89.0	-75.0	0.1666666666666666	6.0	1.0	1.0	1.3596900537491408	2.156	n/a	stim	poldrack-single-stim	s627	False	1
41.797	1.372	43.169	-0.0484115362698156	draw_card	1.372	columbia_card_task_fmri	17.0	0.8	89.0	-75.0	0.2	6.0	2.0	1.0	3.871496716905732	1.372	n/a	stim	poldrack-single-stim	s627	False	1
43.171	2.173	45.344	-4.648411536269817	end_round	2.173	columbia_card_task_fmri	17.0	0.75	71.0	-75.0	0.25	6.0	3.0	1.0	6.906774754457594	2.173	2.0	stim	poldrack-single-stim	s627	False	1
46.095	1.5	45.344	n/a	-1.0	2.658	columbia_card_task_fmri	n/a	n/a	-1.0	n/a	n/a	n/a	n/a	n/a	n/a	n/a	n/a	ITI	poldrack-single-stim	s627	False	0
48.005	5.535	53.54	4.351588463730183	draw_card	5.535	columbia_card_task_fmri	24.0	0.75	89.0	-60.0	0.25	8.0	1.0	2.0	3.4448547118467943	5.535	n/a	stim	poldrack-single-stim	s627	False	1
53.541	1.976	55.517	1.351588463730183	draw_card	1.976	columbia_card_task_fmri	24.0	0.7142857142857143	89.0	-60.0	0.2857142857142857	8.0	2.0	2.0	5.018078929456031	1.976	n/a	stim	poldrack-single-stim	s627	False	1
55.519	1.206	56.725	-2.6484115362698173	draw_card	1.206	columbia_card_task_fmri	24.0	0.6666666666666667	89.0	-60.0	0.3333333333333333	8.0	3.0	2.0	6.66772430300373	1.206	n/a	stim	poldrack-single-stim	s627	False	1
56.727	0.888	57.615	-8.248411536269819	draw_card	0.888	columbia_card_task_fmri	24.0	0.6	89.0	-60.0	0.4	8.0	4.0	2.0	8.220302208625426	0.888	4.0	stim	poldrack-single-stim	s627	False	0
58.371	1.5	57.62	n/a	-1.0	2.386	columbia_card_task_fmri	n/a	n/a	-1.0	n/a	n/a	n/a	n/a	n/a	n/a	n/a	n/a	ITI	poldrack-single-stim	s627	False	0
60.008	2.252	62.26	4.351588463730183	draw_card	2.252	columbia_card_task_fmri	29.0	0.75	89.0	-75.0	0.25	8.0	1.0	2.0	12.100283641222497	2.252	n/a	stim	poldrack-single-stim	s627	False	1
62.261	0.908	63.169	0.6373027494444712	draw_card	0.908	columbia_card_task_fmri	29.0	0.7142857142857143	89.0	-75.0	0.2857142857142857	8.0	2.0	2.0	14.048532703397392	0.908	2.0	stim	poldrack-single-stim	s627	False	0
63.923	1.5	63.172	n/a	-1.0	2.386	columbia_card_task_fmri	n/a	n/a	-1.0	n/a	n/a	n/a	n/a	n/a	n/a	n/a	n/a	ITI	poldrack-single-stim	s627	False	0
65.56	4.072	69.632	0.1293662415079632	draw_card	4.072	columbia_card_task_fmri	17.0	0.7777777777777778	89.0	-65.0	0.2222222222222222	9.0	1.0	2.0	1.1641233555763932	4.072	n/a	stim	poldrack-single-stim	s627	False	1
69.633	1.272	70.905	-2.1484115362698173	draw_card	1.272	columbia_card_task_fmri	17.0	0.75	89.0	-65.0	0.25	9.0	2.0	2.0	2.579441143551371	1.272	n/a	stim	poldrack-single-stim	s627	False	1
70.906	1.046	71.952	-5.076982964841244	draw_card	1.046	columbia_card_task_fmri	17.0	0.7142857142857143	89.0	-65.0	0.2857142857142857	9.0	3.0	2.0	4.115157530221815	1.046	n/a	stim	poldrack-single-stim	s627	False	1
71.953	1.946	73.899	-8.981744869603148	draw_card	1.946	columbia_card_task_fmri	17.0	0.6666666666666667	89.0	-65.0	0.3333333333333333	9.0	4.0	2.0	5.725477361276504	1.946	n/a	stim	poldrack-single-stim	s627	False	1
73.9	1.485	75.385	-14.448411536269818	end_round	1.485	columbia_card_task_fmri	17.0	0.6	71.0	-65.0	0.4	9.0	5.0	2.0	7.241047228182253	1.485	4.0	stim	poldrack-single-stim	s627	False	1
76.14	1.5	75.389	n/a	-1.0	2.25	columbia_card_task_fmri	n/a	n/a	-1.0	n/a	n/a	n/a	n/a	n/a	n/a	n/a	n/a	ITI	poldrack-single-stim	s627	False	0
77.642	2.672	80.314	4.451588463730182	draw_card	2.672	columbia_card_task_fmri	14.0	0.9	89.0	-95.0	0.1	10.0	1.0	1.0	-0.2253947834588316	2.672	n/a	stim	poldrack-single-stim	s627	False	1
80.314	1.428	81.742	3.24047735261907	draw_card	1.428	columbia_card_task_fmri	14.0	0.8888888888888888	89.0	-95.0	0.1111111111111111	10.0	2.0	1.0	1.3287336414764752	1.428	n/a	stim	poldrack-single-stim	s627	False	1
81.744	1.001	82.745	1.726588463730183	draw_card	1.001	columbia_card_task_fmri	14.0	0.875	89.0	-95.0	0.125	10.0	3.0	1.0	3.1203753250362354	1.001	n/a	stim	poldrack-single-stim	s627	False	1
82.747	0.998	83.745	-0.2198401076983882	draw_card	0.998	columbia_card_task_fmri	14.0	0.8571428571428572	89.0	-95.0	0.1428571428571428	10.0	4.0	1.0	5.212678807316159	0.998	4.0	stim	poldrack-single-stim	s627	False	0
84.499	1.5	83.748	n/a	-1.0	2.318	columbia_card_task_fmri	n/a	n/a	-1.0	n/a	n/a	n/a	n/a	n/a	n/a	n/a	n/a	ITI	poldrack-single-stim	s627	False	0
86.068	4.367	90.435	0.3515884637301829	draw_card	4.367	columbia_card_task_fmri	15.0	0.8	89.0	-65.0	0.2	10.0	1.0	2.0	-0.9247845570584516	4.367	n/a	stim	poldrack-single-stim	s627	False	1
90.436	0.695	91.131	-1.426189314047594	draw_card	0.695	columbia_card_task_fmri	15.0	0.7777777777777778	89.0	-65.0	0.2222222222222222	10.0	2.0	2.0	0.3333129562809773	0.695	n/a	stim	poldrack-single-stim	s627	False	1
91.133	0.653	91.786	-3.648411536269817	draw_card	0.653	columbia_card_task_fmri	15.0	0.75	89.0	-65.0	0.25	10.0	3.0	2.0	1.7140581329869704	0.653	n/a	stim	poldrack-single-stim	s627	False	1
91.787	0.856	92.643	-6.505554393412671	draw_card	0.856	columbia_card_task_fmri	15.0	0.7142857142857143	89.0	-65.0	0.2857142857142857	10.0	4.0	2.0	3.212265426185425	0.856	n/a	stim	poldrack-single-stim	s627	False	1
92.644	1.129	93.773	-10.31507820293648	draw_card	1.129	columbia_card_task_fmri	15.0	0.6666666666666667	89.0	-65.0	0.3333333333333333	10.0	5.0	2.0	4.783258498147241	1.129	n/a	stim	poldrack-single-stim	s627	False	1
93.775	1.186	94.961	-15.648411536269816	end_round	1.186	columbia_card_task_fmri	15.0	0.6	71.0	-65.0	0.4	10.0	6.0	2.0	6.261819270052015	1.186	5.0	stim	poldrack-single-stim	s627	False	1
95.714	1.5	94.963	n/a	-1.0	2.25	columbia_card_task_fmri	n/a	n/a	-1.0	n/a	n/a	n/a	n/a	n/a	n/a	n/a	n/a	ITI	poldrack-single-stim	s627	False	0
97.215	3.226	100.441	1.9515884637301844	draw_card	3.226	columbia_card_task_fmri	17.0	0.8	89.0	-65.0	0.2	10.0	1.0	2.0	-0.1254798351632899	3.226	1.0	stim	poldrack-single-stim	s627	False	0
101.193	1.5	100.442	n/a	-1.0	2.25	columbia_card_task_fmri	n/a	n/a	-1.0	n/a	n/a	n/a	n/a	n/a	n/a	n/a	n/a	ITI	poldrack-single-stim	s627	False	0
102.695	2.858	105.553	0.5182551303968508	draw_card	2.858	columbia_card_task_fmri	13.0	0.8333333333333334	89.0	-70.0	0.1666666666666666	12.0	1.0	2.0	-1.991526956393347	2.858	1.0	stim	poldrack-single-stim	s627	False	0
106.309	1.5	105.558	n/a	-1.0	2.386	columbia_card_task_fmri	n/a	n/a	-1.0	n/a	n/a	n/a	n/a	n/a	n/a	n/a	n/a	ITI	poldrack-single-stim	s627	False	0
107.946	2.432	110.378	0.5182551303968508	draw_card	2.432	columbia_card_task_fmri	15.0	0.8333333333333334	89.0	-80.0	0.1666666666666666	12.0	1.0	2.0	2.476883721885549	2.432	n/a	stim	poldrack-single-stim	s627	False	1
110.38	2.133	112.513	-0.9211388089970922	draw_card	2.133	columbia_card_task_fmri	15.0	0.8181818181818181	89.0	-80.0	0.1818181818181818	12.0	2.0	2.0	3.7125920745660608	2.133	2.0	stim	poldrack-single-stim	s627	False	0
113.269	1.5	112.518	n/a	-1.0	2.386	columbia_card_task_fmri	n/a	n/a	-1.0	n/a	n/a	n/a	n/a	n/a	n/a	n/a	n/a	ITI	poldrack-single-stim	s627	False	0
114.907	4.252	119.159	-0.448411536269816	draw_card	4.252	columbia_card_task_fmri	14.0	0.8	89.0	-65.0	0.2	15.0	1.0	3.0	-1.324423734310752	4.252	1.0	stim	poldrack-single-stim	s627	False	0
119.916	1.5	119.165	n/a	-1.0	2.726	columbia_card_task_fmri	n/a	n/a	-1.0	n/a	n/a	n/a	n/a	n/a	n/a	n/a	n/a	ITI	poldrack-single-stim	s627	False	0
121.894	2.444	124.338	-0.5234115362698171	end_round	2.444	columbia_card_task_fmri	1.0	0.9375	71.0	-45.0	0.0625	16.0	1.0	1.0	-21.736757765044597	2.444	0.0	stim	poldrack-single-stim	s627	False	1
125.095	1.5	124.344	n/a	-1.0	2.454	columbia_card_task_fmri	n/a	n/a	-1.0	n/a	n/a	n/a	n/a	n/a	n/a	n/a	n/a	ITI	poldrack-single-stim	s627	False	0
126.8	1.462	128.262	0.4140884637301829	draw_card	1.462	columbia_card_task_fmri	15.0	0.8125	89.0	-70.0	0.1875	16.0	1.0	3.0	0.2507563620867472	1.462	n/a	stim	poldrack-single-stim	s627	False	1
128.264	1.176	129.44	-0.6484115362698171	draw_card	1.176	columbia_card_task_fmri	15.0	0.8	89.0	-70.0	0.2	16.0	2.0	3.0	1.073538520749132	1.176	n/a	stim	poldrack-single-stim	s627	False	1
129.441	0.914	130.355	-1.8626972505555324	draw_card	0.914	columbia_card_task_fmri	15.0	0.7857142857142857	89.0	-70.0	0.2142857142857142	16.0	3.0	3.0	1.950565033027196	0.914	3.0	stim	poldrack-single-stim	s627	False	0
131.108	1.5	130.357	n/a	-1.0	2.318	columbia_card_task_fmri	n/a	n/a	-1.0	n/a	n/a	n/a	n/a	n/a	n/a	n/a	n/a	ITI	poldrack-single-stim	s627	False	0
132.679	2.836	135.515	7.351588463730183	draw_card	2.836	columbia_card_task_fmri	30.0	0.7	89.0	-50.0	0.3	10.0	1.0	3.0	3.7321965558153702	2.836	n/a	stim	poldrack-single-stim	s627	False	1
135.516	0.854	136.37	4.684921797063522	draw_card	0.854	columbia_card_task_fmri	30.0	0.6666666666666667	89.0	-50.0	0.3333333333333333	10.0	2.0	3.0	4.783258498147241	0.854	n/a	stim	poldrack-single-stim	s627	False	1
136.373	1.571	137.944	1.351588463730183	draw_card	1.571	columbia_card_task_fmri	30.0	0.625	89.0	-50.0	0.375	10.0	3.0	3.0	5.800094607889498	1.571	3.0	stim	poldrack-single-stim	s627	False	0
138.697	1.5	137.946	n/a	-1.0	2.318	columbia_card_task_fmri	n/a	n/a	-1.0	n/a	n/a	n/a	n/a	n/a	n/a	n/a	n/a	ITI	poldrack-single-stim	s627	False	0
140.268	2.383	142.651	6.751588463730183	draw_card	2.383	columbia_card_task_fmri	17.0	0.8666666666666667	89.0	-70.0	0.1333333333333333	15.0	1.0	2.0	-3.3481336201852763	2.383	n/a	stim	poldrack-single-stim	s627	False	1
142.653	0.444	143.097	5.923017035158756	draw_card	0.444	columbia_card_task_fmri	17.0	0.8571428571428572	89.0	-70.0	0.1428571428571428	15.0	2.0	2.0	-2.4796691683163914	0.444	n/a	stim	poldrack-single-stim	s627	False	1
143.099	0.554	143.653	4.966973079114798	draw_card	0.554	columbia_card_task_fmri	17.0	0.8461538461538461	89.0	-70.0	0.1538461538461538	15.0	3.0	2.0	-1.5345248839762462	0.554	3.0	stim	poldrack-single-stim	s627	False	0
144.41	1.5	143.659	n/a	-1.0	2.59	columbia_card_task_fmri	n/a	n/a	-1.0	n/a	n/a	n/a	n/a	n/a	n/a	n/a	n/a	ITI	poldrack-single-stim	s627	False	0
146.252	2.193	148.445	1.976588463730183	draw_card	2.193	columbia_card_task_fmri	7.0	0.9375	89.0	-95.0	0.0625	16.0	1.0	1.0	-8.226080137309594	2.193	n/a	stim	poldrack-single-stim	s627	False	1
148.447	1.348	149.795	1.551588463730183	draw_card	1.348	columbia_card_task_fmri	7.0	0.9333333333333332	89.0	-95.0	0.0666666666666666	16.0	2.0	1.0	-7.474171209972791	1.348	n/a	stim	poldrack-single-stim	s627	False	1
149.798	1.259	151.057	1.0658741780158971	draw_card	1.259	columbia_card_task_fmri	7.0	0.9285714285714286	89.0	-95.0	0.0714285714285714	16.0	3.0	1.0	-6.649551162575893	1.259	n/a	stim	poldrack-single-stim	s627	False	1
151.058	1.166	152.224	0.5054346175763362	draw_card	1.166	columbia_card_task_fmri	7.0	0.9230769230769232	89.0	-95.0	0.0769230769230769	16.0	4.0	1.0	-5.739856402634526	1.166	n/a	stim	poldrack-single-stim	s627	False	1
152.227	0.89	153.117	-0.148411536269817	draw_card	0.89	columbia_card_task_fmri	7.0	0.9166666666666666	89.0	-95.0	0.0833333333333333	16.0	5.0	1.0	-4.729623430959101	0.89	n/a	stim	poldrack-single-stim	s627	False	1
153.119	0.96	154.079	-0.9211388089970904	draw_card	0.96	columbia_card_task_fmri	7.0	0.9090909090909092	89.0	-95.0	0.0909090909090909	16.0	6.0	1.0	-3.5992441493800342	0.96	n/a	stim	poldrack-single-stim	s627	False	1
154.082	1.025	155.107	-1.8484115362698168	end_round	1.025	columbia_card_task_fmri	7.0	0.9	71.0	-95.0	0.1	16.0	7.0	1.0	-2.323480465633729	1.025	6.0	stim	poldrack-single-stim	s627	False	1
155.864	1.5	155.113	n/a	-1.0	2.726	columbia_card_task_fmri	n/a	n/a	-1.0	n/a	n/a	n/a	n/a	n/a	n/a	n/a	n/a	ITI	poldrack-single-stim	s627	False	0
157.841	2.615	160.456	3.5390884637301827	draw_card	2.615	columbia_card_task_fmri	9.0	0.9375	89.0	-100.0	0.0625	16.0	1.0	1.0	-6.534020702641666	2.615	n/a	stim	poldrack-single-stim	s627	False	1
160.458	0.916	161.374	3.084921797063516	draw_card	0.916	columbia_card_task_fmri	9.0	0.9333333333333332	89.0	-100.0	0.0666666666666666	16.0	2.0	1.0	-5.7303653267194825	0.916	n/a	stim	poldrack-single-stim	s627	False	1
161.377	0.784	162.161	2.565874178015898	draw_card	0.784	columbia_card_task_fmri	9.0	0.9285714285714286	89.0	-100.0	0.0714285714285714	16.0	3.0	1.0	-4.849004368058196	0.784	n/a	stim	poldrack-single-stim	s627	False	1
162.162	1.172	163.334	1.9669730791147988	draw_card	1.172	columbia_card_task_fmri	9.0	0.9230769230769232	89.0	-100.0	0.0769230769230769	16.0	4.0	1.0	-3.876725330883712	1.172	n/a	stim	poldrack-single-stim	s627	False	1
163.336	1.429	164.765	1.2682551303968508	end_round	1.429	columbia_card_task_fmri	9.0	0.9166666666666666	71.0	-100.0	0.0833333333333333	16.0	5.0	1.0	-2.7970030086291544	1.429	4.0	stim	poldrack-single-stim	s627	False	1
165.52	1.5	164.769	n/a	-1.0	2.522	columbia_card_task_fmri	n/a	n/a	-1.0	n/a	n/a	n/a	n/a	n/a	n/a	n/a	n/a	ITI	poldrack-single-stim	s627	False	0
167.295	3.696	170.991	4.476588463730183	draw_card	3.696	columbia_card_task_fmri	15.0	0.875	89.0	-80.0	0.125	16.0	1.0	2.0	-1.505959978291166	3.696	n/a	stim	poldrack-single-stim	s627	False	1
170.993	0.585	171.578	3.6849217970635166	draw_card	0.585	columbia_card_task_fmri	15.0	0.8666666666666667	89.0	-80.0	0.1333333333333333	16.0	2.0	2.0	-0.6312536338499086	0.585	n/a	stim	poldrack-single-stim	s627	False	1
171.581	0.706	172.287	2.7801598923016133	draw_card	0.706	columbia_card_task_fmri	15.0	0.8571428571428572	89.0	-80.0	0.1428571428571428	16.0	3.0	2.0	0.3172245511495646	0.706	3.0	stim	poldrack-single-stim	s627	False	0
173.04	1.5	172.289	n/a	-1.0	3.134	columbia_card_task_fmri	n/a	n/a	-1.0	n/a	n/a	n/a	n/a	n/a	n/a	n/a	n/a	ITI	poldrack-single-stim	s627	False	0
175.426	2.495	177.921	6.601588463730183	draw_card	2.495	columbia_card_task_fmri	16.0	0.875	89.0	-70.0	0.125	16.0	1.0	2.0	-4.479392446943468	2.495	n/a	stim	poldrack-single-stim	s627	False	1
177.924	0.54	178.464	5.884921797063516	draw_card	0.54	columbia_card_task_fmri	16.0	0.8666666666666667	89.0	-70.0	0.1333333333333333	16.0	2.0	2.0	-3.6877096973838057	0.54	n/a	stim	poldrack-single-stim	s627	False	1
178.466	0.799	179.265	5.065874178015898	draw_card	0.799	columbia_card_task_fmri	16.0	0.8571428571428572	89.0	-70.0	0.1428571428571428	16.0	3.0	2.0	-2.829247925276011	0.799	n/a	stim	poldrack-single-stim	s627	False	1
179.267	1.76	181.027	4.120819232960951	draw_card	1.76	columbia_card_task_fmri	16.0	0.8461538461538461	89.0	-70.0	0.1538461538461538	16.0	4.0	2.0	-1.8949882159889349	1.76	n/a	stim	poldrack-single-stim	s627	False	1
181.029	1.841	182.87	3.0182551303968506	draw_card	1.841	columbia_card_task_fmri	16.0	0.8333333333333334	89.0	-70.0	0.1666666666666666	16.0	5.0	2.0	-0.8745216232053963	1.841	n/a	stim	poldrack-single-stim	s627	False	1
182.872	1.347	184.219	1.7152248273665445	draw_card	1.347	columbia_card_task_fmri	16.0	0.8181818181818181	89.0	-70.0	0.1818181818181818	16.0	6.0	2.0	0.243946426711112	1.347	6.0	stim	poldrack-single-stim	s627	False	0
184.973	1.5	184.222	n/a	-1.0	2.386	columbia_card_task_fmri	n/a	n/a	-1.0	n/a	n/a	n/a	n/a	n/a	n/a	n/a	n/a	ITI	poldrack-single-stim	s627	False	0
186.61	3.271	189.881	7.914088463730183	draw_card	3.271	columbia_card_task_fmri	30.0	0.6875	89.0	-45.0	0.3125	16.0	1.0	5.0	1.836379646271837	3.271	n/a	stim	poldrack-single-stim	s627	False	1
189.883	1.144	191.027	6.351588463730186	draw_card	1.144	columbia_card_task_fmri	30.0	0.6666666666666667	89.0	-45.0	0.3333333333333333	16.0	2.0	5.0	2.427848905311812	1.144	2.0	stim	poldrack-single-stim	s627	False	0
191.784	1.5	191.033	n/a	-1.0	2.386	columbia_card_task_fmri	n/a	n/a	-1.0	n/a	n/a	n/a	n/a	n/a	n/a	n/a	n/a	ITI	poldrack-single-stim	s627	False	0
193.421	2.805	196.226	-0.3150782029364831	draw_card	2.805	columbia_card_task_fmri	13.0	0.8333333333333334	89.0	-75.0	0.1666666666666666	6.0	1.0	1.0	-0.1298124877882145	2.805	n/a	stim	poldrack-single-stim	s627	False	1
196.228	0.846	197.074	-3.248411536269817	draw_card	0.846	columbia_card_task_fmri	13.0	0.8	89.0	-75.0	0.2	6.0	2.0	1.0	2.272623730362959	0.846	n/a	stim	poldrack-single-stim	s627	False	1
197.076	0.779	197.855	-7.648411536269817	end_round	0.779	columbia_card_task_fmri	13.0	0.75	71.0	-75.0	0.25	6.0	3.0	1.0	5.175765198753204	0.779	2.0	stim	poldrack-single-stim	s627	False	1
198.609	1.5	197.858	n/a	-1.0	2.318	columbia_card_task_fmri	n/a	n/a	-1.0	n/a	n/a	n/a	n/a	n/a	n/a	n/a	n/a	ITI	poldrack-single-stim	s627	False	0
200.179	2.5	202.679	1.3515884637301847	draw_card	2.5	columbia_card_task_fmri	14.0	0.8333333333333334	89.0	-70.0	0.1666666666666666	6.0	1.0	1.0	-1.6191999979120588	2.5	n/a	stim	poldrack-single-stim	s627	False	1
202.681	1.119	203.8	-1.448411536269816	draw_card	1.119	columbia_card_task_fmri	14.0	0.8	89.0	-70.0	0.2	6.0	2.0	1.0	0.6738579540994181	1.119	n/a	stim	poldrack-single-stim	s627	False	1
203.803	1.606	205.409	-5.648411536269817	draw_card	1.606	columbia_card_task_fmri	14.0	0.75	89.0	-70.0	0.25	6.0	3.0	1.0	3.4448547118467943	1.606	3.0	stim	poldrack-single-stim	s627	False	0
206.161	1.5	205.41	n/a	-1.0	2.318	columbia_card_task_fmri	n/a	n/a	-1.0	n/a	n/a	n/a	n/a	n/a	n/a	n/a	n/a	ITI	poldrack-single-stim	s627	False	0
207.732	3.676	211.408	1.3515884637301847	draw_card	3.676	columbia_card_task_fmri	16.0	0.8333333333333334	89.0	-80.0	0.1666666666666666	6.0	1.0	1.0	2.8492932696834785	3.676	n/a	stim	poldrack-single-stim	s627	False	1
211.411	1.526	212.937	-1.8484115362698164	draw_card	1.526	columbia_card_task_fmri	16.0	0.8	89.0	-80.0	0.2	6.0	2.0	1.0	5.470463530172495	1.526	n/a	stim	poldrack-single-stim	s627	False	1
212.939	0.793	213.732	-6.648411536269817	end_round	0.793	columbia_card_task_fmri	16.0	0.75	71.0	-80.0	0.25	6.0	3.0	1.0	8.637871009343357	0.793	2.0	stim	poldrack-single-stim	s627	False	1
214.487	1.5	213.736	n/a	-1.0	2.862	columbia_card_task_fmri	n/a	n/a	-1.0	n/a	n/a	n/a	n/a	n/a	n/a	n/a	n/a	ITI	poldrack-single-stim	s627	False	0
216.601	2.218	218.819	3.851588463730185	draw_card	2.218	columbia_card_task_fmri	17.0	0.8333333333333334	89.0	-70.0	0.1666666666666666	6.0	1.0	1.0	-0.5021707682284244	2.218	n/a	stim	poldrack-single-stim	s627	False	1
218.822	0.735	219.557	0.9515884637301844	draw_card	0.735	columbia_card_task_fmri	17.0	0.8	89.0	-70.0	0.2	6.0	2.0	1.0	1.8729216585553203	0.735	2.0	stim	poldrack-single-stim	s627	False	0
220.311	1.5	219.56	n/a	-1.0	2.726	columbia_card_task_fmri	n/a	n/a	-1.0	n/a	n/a	n/a	n/a	n/a	n/a	n/a	n/a	ITI	poldrack-single-stim	s627	False	0
222.29	2.135	224.425	3.851588463730183	draw_card	2.135	columbia_card_task_fmri	25.0	0.75	89.0	-65.0	0.25	8.0	1.0	2.0	6.041258417569203	2.135	n/a	stim	poldrack-single-stim	s627	False	1
224.427	2.605	227.032	0.6373027494444712	draw_card	2.605	columbia_card_task_fmri	25.0	0.7142857142857143	89.0	-65.0	0.2857142857142857	8.0	2.0	2.0	7.7269993913551716	2.605	2.0	stim	poldrack-single-stim	s627	False	0
227.787	1.5	227.036	n/a	-1.0	2.25	columbia_card_task_fmri	n/a	n/a	-1.0	n/a	n/a	n/a	n/a	n/a	n/a	n/a	n/a	ITI	poldrack-single-stim	s627	False	0
229.289	2.486	231.775	3.851588463730183	draw_card	2.486	columbia_card_task_fmri	30.0	0.75	89.0	-80.0	0.25	8.0	1.0	2.0	14.697254232377958	2.486	n/a	stim	poldrack-single-stim	s627	False	1
231.778	0.748	232.526	-0.0769829648412405	draw_card	0.748	columbia_card_task_fmri	30.0	0.7142857142857143	89.0	-80.0	0.2857142857142857	8.0	2.0	2.0	16.757996604132643	0.748	n/a	stim	poldrack-single-stim	s627	False	1
232.529	1.954	234.483	-5.315078202936478	draw_card	1.954	columbia_card_task_fmri	30.0	0.6666666666666667	89.0	-80.0	0.3333333333333333	8.0	3.0	2.0	18.91879343247831	1.954	3.0	stim	poldrack-single-stim	s627	False	0
235.239	1.5	234.488	n/a	-1.0	2.318	columbia_card_task_fmri	n/a	n/a	-1.0	n/a	n/a	n/a	n/a	n/a	n/a	n/a	n/a	ITI	poldrack-single-stim	s627	False	0
236.809	2.442	239.251	3.551588463730184	draw_card	2.442	columbia_card_task_fmri	13.0	0.9	89.0	-95.0	0.1	10.0	1.0	1.0	-0.5251364823578868	2.442	1.0	stim	poldrack-single-stim	s627	False	0
240.005	1.5	239.254	n/a	-1.0	2.454	columbia_card_task_fmri	n/a	n/a	-1.0	n/a	n/a	n/a	n/a	n/a	n/a	n/a	n/a	ITI	poldrack-single-stim	s627	False	0
241.712	1.589	243.301	4.951588463730182	draw_card	1.589	columbia_card_task_fmri	14.0	0.9	89.0	-90.0	0.1	10.0	1.0	1.0	-1.7240536725342857	1.589	n/a	stim	poldrack-single-stim	s627	False	1
243.303	1.022	244.325	3.7960329081746256	draw_card	1.022	columbia_card_task_fmri	14.0	0.8888888888888888	89.0	-90.0	0.1111111111111111	10.0	2.0	1.0	-0.241334392048671	1.022	n/a	stim	poldrack-single-stim	s627	False	1
244.328	0.618	244.946	2.3515884637301827	draw_card	0.618	columbia_card_task_fmri	14.0	0.875	89.0	-90.0	0.125	10.0	3.0	1.0	1.467997586315683	0.618	n/a	stim	poldrack-single-stim	s627	False	1
244.949	0.993	245.942	0.494445606587327	end_round	0.993	columbia_card_task_fmri	14.0	0.8571428571428572	71.0	-90.0	0.1428571428571428	10.0	4.0	1.0	3.4641934488240764	0.993	3.0	stim	poldrack-single-stim	s627	False	1
246.7	1.5	245.949	n/a	-1.0	2.522	columbia_card_task_fmri	n/a	n/a	-1.0	n/a	n/a	n/a	n/a	n/a	n/a	n/a	n/a	ITI	poldrack-single-stim	s627	False	0
248.474	1.378	249.852	0.1515884637301836	draw_card	1.378	columbia_card_task_fmri	16.0	0.8	89.0	-70.0	0.2	10.0	1.0	2.0	1.4732265073909616	1.378	n/a	stim	poldrack-single-stim	s627	False	1
249.855	0.893	250.748	-1.7595226473809278	draw_card	0.893	columbia_card_task_fmri	16.0	0.7777777777777778	89.0	-70.0	0.2222222222222222	10.0	2.0	2.0	2.825837401754804	0.893	n/a	stim	poldrack-single-stim	s627	False	1
250.75	0.604	251.354	-4.148411536269817	draw_card	0.604	columbia_card_task_fmri	16.0	0.75	89.0	-70.0	0.25	10.0	3.0	2.0	4.3102967088466	0.604	n/a	stim	poldrack-single-stim	s627	False	1
251.356	0.812	252.168	-7.219840107698388	end_round	0.812	columbia_card_task_fmri	16.0	0.7142857142857143	71.0	-70.0	0.2857142857142857	10.0	4.0	2.0	5.921027582598754	0.812	3.0	stim	poldrack-single-stim	s627	False	1
252.925	1.5	252.174	n/a	-1.0	2.318	columbia_card_task_fmri	n/a	n/a	-1.0	n/a	n/a	n/a	n/a	n/a	n/a	n/a	n/a	ITI	poldrack-single-stim	s627	False	0
254.495	1.586	256.081	-0.5650782029364831	draw_card	1.586	columbia_card_task_fmri	7.0	0.9166666666666666	89.0	-100.0	0.0833333333333333	12.0	1.0	1.0	-3.3492079636175056	1.586	n/a	stim	poldrack-single-stim	s627	False	1
256.084	0.553	256.637	-1.3756842635425457	draw_card	0.553	columbia_card_task_fmri	7.0	0.9090909090909092	89.0	-100.0	0.0909090909090909	12.0	2.0	1.0	-2.163298589402636	0.553	n/a	stim	poldrack-single-stim	s627	False	1
256.64	0.787	257.427	-2.348411536269817	end_round	0.787	columbia_card_task_fmri	7.0	0.9	71.0	-100.0	0.1	12.0	3.0	1.0	-0.8248733595493647	0.787	2.0	stim	poldrack-single-stim	s627	False	1
258.183	1.5	257.432	n/a	-1.0	2.522	columbia_card_task_fmri	n/a	n/a	-1.0	n/a	n/a	n/a	n/a	n/a	n/a	n/a	n/a	ITI	poldrack-single-stim	s627	False	0
259.957	1.963	261.92	-0.3150782029364813	draw_card	1.963	columbia_card_task_fmri	14.0	0.8333333333333334	89.0	-80.0	0.1666666666666666	12.0	1.0	2.0	2.1044798794553543	1.963	n/a	stim	poldrack-single-stim	s627	False	1
261.922	0.468	262.39	-1.7393206271789106	draw_card	0.468	columbia_card_task_fmri	14.0	0.8181818181818181	89.0	-80.0	0.1818181818181818	12.0	2.0	2.0	3.327162387582028	0.468	n/a	stim	poldrack-single-stim	s627	False	1
262.393	0.754	263.147	-3.448411536269816	draw_card	0.754	columbia_card_task_fmri	14.0	0.8	89.0	-80.0	0.2	12.0	3.0	2.0	4.67096914283335	0.754	n/a	stim	poldrack-single-stim	s627	False	1
263.149	1.486	264.635	-5.537300425158707	draw_card	1.486	columbia_card_task_fmri	14.0	0.7777777777777778	89.0	-80.0	0.2222222222222222	12.0	4.0	2.0	6.149583005943043	1.486	n/a	stim	poldrack-single-stim	s627	False	1
264.639	1.54	266.179	-8.148411536269817	draw_card	1.54	columbia_card_task_fmri	14.0	0.75	89.0	-80.0	0.25	12.0	5.0	2.0	7.77231273547654	1.54	5.0	stim	poldrack-single-stim	s627	False	0
266.934	1.5	266.183	n/a	-1.0	2.998	columbia_card_task_fmri	n/a	n/a	-1.0	n/a	n/a	n/a	n/a	n/a	n/a	n/a	n/a	ITI	poldrack-single-stim	s627	False	0
269.185	1.624	270.809	1.351588463730183	draw_card	1.624	columbia_card_task_fmri	15.0	0.8333333333333334	89.0	-75.0	0.1666666666666666	12.0	1.0	2.0	0.6149253610667387	1.624	n/a	stim	poldrack-single-stim	s627	False	1
270.812	0.753	271.565	-0.0120478999061821	draw_card	0.753	columbia_card_task_fmri	15.0	0.8181818181818181	89.0	-75.0	0.1818181818181818	12.0	2.0	2.0	1.7855024462360944	0.753	n/a	stim	poldrack-single-stim	s627	False	1
271.569	0.427	271.996	-1.648411536269817	draw_card	0.427	columbia_card_task_fmri	15.0	0.8	89.0	-75.0	0.2	12.0	3.0	2.0	3.072047714488143	0.427	3.0	stim	poldrack-single-stim	s627	False	0
272.75	1.5	271.999	n/a	-1.0	2.318	columbia_card_task_fmri	n/a	n/a	-1.0	n/a	n/a	n/a	n/a	n/a	n/a	n/a	n/a	ITI	poldrack-single-stim	s627	False	0
274.321	2.15	276.471	0.3515884637301829	draw_card	2.15	columbia_card_task_fmri	15.0	0.8	89.0	-65.0	0.2	15.0	1.0	3.0	-0.9247845570584516	2.15	n/a	stim	poldrack-single-stim	s627	False	1
276.474	0.755	277.229	-0.7912686791269594	draw_card	0.755	columbia_card_task_fmri	15.0	0.7857142857142857	89.0	-65.0	0.2142857142857142	15.0	2.0	3.0	-0.0994296590813021	0.755	n/a	stim	poldrack-single-stim	s627	False	1
277.231	0.373	277.604	-2.1099499978082807	draw_card	0.373	columbia_card_task_fmri	15.0	0.7692307692307692	89.0	-65.0	0.2307692307692307	15.0	3.0	3.0	0.7797761027301249	0.373	n/a	stim	poldrack-single-stim	s627	False	1
277.607	2.174	279.781	-3.648411536269817	draw_card	2.174	columbia_card_task_fmri	15.0	0.75	89.0	-65.0	0.25	15.0	4.0	3.0	1.7140581329869704	2.174	n/a	stim	poldrack-single-stim	s627	False	1
279.783	1.383	281.166	-5.466593354451634	end_round	1.383	columbia_card_task_fmri	15.0	0.7272727272727273	71.0	-65.0	0.2727272727272727	15.0	5.0	3.0	2.701253384008581	1.383	4.0	stim	poldrack-single-stim	s627	False	1
281.922	1.5	281.171	n/a	-1.0	2.25	columbia_card_task_fmri	n/a	n/a	-1.0	n/a	n/a	n/a	n/a	n/a	n/a	n/a	n/a	ITI	poldrack-single-stim	s627	False	0
283.426	1.773	285.199	-0.398411536269817	draw_card	1.773	columbia_card_task_fmri	14.0	0.8125	89.0	-70.0	0.1875	16.0	1.0	3.0	-0.1392286707700591	1.773	1.0	stim	poldrack-single-stim	s627	False	0
285.953	1.5	285.202	n/a	-1.0	2.454	columbia_card_task_fmri	n/a	n/a	-1.0	n/a	n/a	n/a	n/a	n/a	n/a	n/a	n/a	ITI	poldrack-single-stim	s627	False	0
287.659	2.211	289.87	-0.460911536269817	draw_card	2.211	columbia_card_task_fmri	11.0	0.6875	89.0	-30.0	0.3125	16.0	1.0	5.0	-13.901304138926008	2.211	n/a	stim	poldrack-single-stim	s627	False	1
289.873	1.686	291.559	-1.3150782029364831	draw_card	1.686	columbia_card_task_fmri	11.0	0.6666666666666667	89.0	-30.0	0.3333333333333333	16.0	2.0	5.0	-13.57852908212801	1.686	2.0	stim	poldrack-single-stim	s627	False	0
292.313	1.5	291.562	n/a	-1.0	2.318	columbia_card_task_fmri	n/a	n/a	-1.0	n/a	n/a	n/a	n/a	n/a	n/a	n/a	n/a	ITI	poldrack-single-stim	s627	False	0
293.884	2.057	295.941	4.351588463730183	draw_card	2.057	columbia_card_task_fmri	15.0	0.8666666666666667	89.0	-75.0	0.1333333333333333	15.0	1.0	2.0	-2.3293576527206383	2.057	n/a	stim	poldrack-single-stim	s627	False	1
295.943	0.438	296.381	3.494445606587327	draw_card	0.438	columbia_card_task_fmri	15.0	0.8571428571428572	89.0	-75.0	0.1428571428571428	15.0	2.0	2.0	-1.4308865166612996	0.438	n/a	stim	poldrack-single-stim	s627	False	1
296.385	0.873	297.258	2.505434617576336	draw_card	0.873	columbia_card_task_fmri	15.0	0.8461538461538461	89.0	-75.0	0.1538461538461538	15.0	3.0	2.0	-0.4530898972530224	0.873	n/a	stim	poldrack-single-stim	s627	False	1
297.26	0.641	297.901	1.351588463730183	draw_card	0.641	columbia_card_task_fmri	15.0	0.8333333333333334	89.0	-75.0	0.1666666666666666	15.0	4.0	2.0	0.6149253610667387	0.641	n/a	stim	poldrack-single-stim	s627	False	1
297.905	0.889	298.794	-0.0120478999061821	draw_card	0.889	columbia_card_task_fmri	15.0	0.8181818181818181	89.0	-75.0	0.1818181818181818	15.0	5.0	2.0	1.7855024462360944	0.889	n/a	stim	poldrack-single-stim	s627	False	1
298.797	1.053	299.85	-1.648411536269817	end_round	1.053	columbia_card_task_fmri	15.0	0.8	71.0	-75.0	0.2	15.0	6.0	2.0	3.072047714488143	1.053	5.0	stim	poldrack-single-stim	s627	False	1
300.607	1.5	299.856	n/a	-1.0	2.318	columbia_card_task_fmri	n/a	n/a	-1.0	n/a	n/a	n/a	n/a	n/a	n/a	n/a	n/a	ITI	poldrack-single-stim	s627	False	0
302.178	2.107	304.285	6.084921797063517	draw_card	2.107	columbia_card_task_fmri	17.0	0.8666666666666667	89.0	-75.0	0.1333333333333333	15.0	1.0	2.0	-1.650136483843763	2.107	n/a	stim	poldrack-single-stim	s627	False	1
304.288	0.544	304.832	5.208731320873042	draw_card	0.544	columbia_card_task_fmri	17.0	0.8571428571428572	89.0	-75.0	0.1428571428571428	15.0	2.0	2.0	-0.7316619476714834	0.544	n/a	stim	poldrack-single-stim	s627	False	1
304.835	0.418	305.253	4.197742309884029	draw_card	0.418	columbia_card_task_fmri	17.0	0.8461538461538461	89.0	-75.0	0.1538461538461538	15.0	3.0	2.0	0.2679018118523899	0.418	n/a	stim	poldrack-single-stim	s627	False	1
305.256	0.362	305.618	3.0182551303968506	draw_card	0.362	columbia_card_task_fmri	17.0	0.8333333333333334	89.0	-75.0	0.1666666666666666	15.0	4.0	2.0	1.3596900537491408	0.362	4.0	stim	poldrack-single-stim	s627	False	0
306.372	1.5	305.621	n/a	-1.0	2.59	columbia_card_task_fmri	n/a	n/a	-1.0	n/a	n/a	n/a	n/a	n/a	n/a	n/a	n/a	ITI	poldrack-single-stim	s627	False	0
308.215	3.251	311.466	1.664088463730183	draw_card	3.251	columbia_card_task_fmri	2.0	0.9375	89.0	-25.0	0.0625	16.0	1.0	1.0	-26.27936346632115	3.251	n/a	stim	poldrack-single-stim	s627	False	1
311.469	0.949	312.418	1.5515884637301829	draw_card	0.949	columbia_card_task_fmri	2.0	0.9333333333333332	89.0	-25.0	0.0666666666666666	16.0	2.0	1.0	-26.084051200523295	0.949	n/a	stim	poldrack-single-stim	s627	False	1
312.421	0.585	313.006	1.4230170351587546	end_round	0.585	columbia_card_task_fmri	2.0	0.9285714285714286	71.0	-25.0	0.0714285714285714	16.0	3.0	1.0	-25.869613582753992	0.585	2.0	stim	poldrack-single-stim	s627	False	1
313.763	1.5	313.012	n/a	-1.0	2.25	columbia_card_task_fmri	n/a	n/a	-1.0	n/a	n/a	n/a	n/a	n/a	n/a	n/a	n/a	ITI	poldrack-single-stim	s627	False	0
315.267	1.779	317.046	3.851588463730183	draw_card	1.779	columbia_card_task_fmri	9.0	0.9375	89.0	-95.0	0.0625	16.0	1.0	1.0	-7.742667080592369	1.779	n/a	stim	poldrack-single-stim	s627	False	1
317.05	0.705	317.755	3.41825513039685	draw_card	0.705	columbia_card_task_fmri	9.0	0.9333333333333332	89.0	-95.0	0.0666666666666666	16.0	2.0	1.0	-6.9759724997227295	0.705	n/a	stim	poldrack-single-stim	s627	False	1
317.758	0.462	318.22	2.9230170351587548	draw_card	0.462	columbia_card_task_fmri	9.0	0.9285714285714286	89.0	-95.0	0.0714285714285714	16.0	3.0	1.0	-6.135139779437388	0.462	n/a	stim	poldrack-single-stim	s627	False	1
318.224	0.783	319.007	2.3515884637301827	draw_card	0.783	columbia_card_task_fmri	9.0	0.9230769230769232	89.0	-95.0	0.0769230769230769	16.0	4.0	1.0	-5.20756278064745	0.783	n/a	stim	poldrack-single-stim	s627	False	1
319.01	0.912	319.922	1.6849217970635169	end_round	0.912	columbia_card_task_fmri	9.0	0.9166666666666666	71.0	-95.0	0.0833333333333333	16.0	5.0	1.0	-4.177474655955667	0.912	4.0	stim	poldrack-single-stim	s627	False	1
320.681	1.5	319.93	n/a	-1.0	2.25	columbia_card_task_fmri	n/a	n/a	-1.0	n/a	n/a	n/a	n/a	n/a	n/a	n/a	n/a	ITI	poldrack-single-stim	s627	False	0
322.183	1.525	323.708	5.414088463730183	draw_card	1.525	columbia_card_task_fmri	11.0	0.9375	89.0	-100.0	0.0625	16.0	1.0	1.0	-6.050520336024441	1.525	n/a	stim	poldrack-single-stim	s627	False	1
323.71	0.889	324.599	4.951588463730183	draw_card	0.889	columbia_card_task_fmri	11.0	0.9333333333333332	89.0	-100.0	0.0666666666666666	16.0	2.0	1.0	-5.232081870141961	0.889	n/a	stim	poldrack-single-stim	s627	False	1
324.602	0.468	325.07	4.423017035158756	draw_card	0.468	columbia_card_task_fmri	11.0	0.9285714285714286	89.0	-100.0	0.0714285714285714	16.0	3.0	1.0	-4.334510882784269	0.468	n/a	stim	poldrack-single-stim	s627	False	1
325.073	0.943	326.016	3.813126925268645	draw_card	0.943	columbia_card_task_fmri	11.0	0.9230769230769232	89.0	-100.0	0.0769230769230769	16.0	4.0	1.0	-3.3443523391139607	0.943	n/a	stim	poldrack-single-stim	s627	False	1
326.019	0.939	326.958	3.1015884637301827	end_round	0.939	columbia_card_task_fmri	11.0	0.9166666666666666	71.0	-100.0	0.0833333333333333	16.0	5.0	1.0	-2.244777693067011	0.939	4.0	stim	poldrack-single-stim	s627	False	1
327.716	1.5	326.965	n/a	-1.0	2.522	columbia_card_task_fmri	n/a	n/a	-1.0	n/a	n/a	n/a	n/a	n/a	n/a	n/a	n/a	ITI	poldrack-single-stim	s627	False	0
329.491	1.934	331.425	5.976588463730183	draw_card	1.934	columbia_card_task_fmri	16.0	0.875	89.0	-75.0	0.125	16.0	1.0	2.0	-2.827559589393044	1.934	n/a	stim	poldrack-single-stim	s627	False	1
331.428	0.567	331.995	5.21825513039685	draw_card	0.567	columbia_card_task_fmri	16.0	0.8666666666666667	89.0	-75.0	0.1333333333333333	16.0	2.0	2.0	-1.9897506241789704	0.567	n/a	stim	poldrack-single-stim	s627	False	1
331.997	0.725	332.722	4.3515884637301845	draw_card	0.725	columbia_card_task_fmri	16.0	0.8571428571428572	89.0	-75.0	0.1428571428571428	16.0	3.0	2.0	-1.0812776870774314	0.725	n/a	stim	poldrack-single-stim	s627	False	1
332.726	0.694	333.42	3.3515884637301827	draw_card	0.694	columbia_card_task_fmri	16.0	0.8461538461538461	89.0	-75.0	0.1538461538461538	16.0	4.0	2.0	-0.092597394021368	0.694	n/a	stim	poldrack-single-stim	s627	False	1
333.422	0.734	334.156	2.1849217970635166	draw_card	0.734	columbia_card_task_fmri	16.0	0.8333333333333334	89.0	-75.0	0.1666666666666666	16.0	5.0	2.0	0.987304462372748	0.734	n/a	stim	poldrack-single-stim	s627	False	1
334.16	0.893	335.053	0.8061339182756362	draw_card	0.893	columbia_card_task_fmri	16.0	0.8181818181818181	89.0	-75.0	0.1818181818181818	16.0	6.0	2.0	2.1709082234133987	0.893	n/a	stim	poldrack-single-stim	s627	False	1
335.056	1.15	336.206	-0.8484115362698164	end_round	1.15	columbia_card_task_fmri	16.0	0.8	71.0	-75.0	0.2	16.0	7.0	2.0	3.4717691913645794	1.15	6.0	stim	poldrack-single-stim	s627	False	1
336.961	1.5	336.21	n/a	-1.0	2.454	columbia_card_task_fmri	n/a	n/a	-1.0	n/a	n/a	n/a	n/a	n/a	n/a	n/a	n/a	ITI	poldrack-single-stim	s627	False	0
338.669	1.264	339.933	6.226588463730183	draw_card	1.264	columbia_card_task_fmri	17.0	0.875	89.0	-80.0	0.125	16.0	1.0	2.0	-0.8451207614228196	1.264	n/a	stim	poldrack-single-stim	s627	False	1
339.936	1.108	341.044	5.418255130396851	draw_card	1.108	columbia_card_task_fmri	17.0	0.8666666666666667	89.0	-80.0	0.1333333333333333	16.0	2.0	2.0	0.0480332099532461	1.108	2.0	stim	poldrack-single-stim	s627	False	0
341.802	1.5	341.051	n/a	-1.0	2.25	columbia_card_task_fmri	n/a	n/a	-1.0	n/a	n/a	n/a	n/a	n/a	n/a	n/a	n/a	ITI	poldrack-single-stim	s627	False	0
354.312	2.568	356.88	0.5182551303968508	draw_card	2.568	columbia_card_task_fmri	13.0	0.8333333333333334	89.0	-70.0	0.1666666666666666	6.0	1.0	1.0	-1.991526956393347	2.568	n/a	stim	poldrack-single-stim	s627	False	1
356.883	0.757	357.64	-2.248411536269817	draw_card	0.757	columbia_card_task_fmri	13.0	0.8	89.0	-70.0	0.2	6.0	2.0	1.0	0.2741850751983392	0.757	n/a	stim	poldrack-single-stim	s627	False	1
357.643	1.061	358.704	-6.398411536269817	end_round	1.061	columbia_card_task_fmri	13.0	0.75	71.0	-70.0	0.25	6.0	3.0	1.0	3.012144245847921	1.061	2.0	stim	poldrack-single-stim	s627	False	1
359.459	1.5	358.708	n/a	-1.0	2.454	columbia_card_task_fmri	n/a	n/a	-1.0	n/a	n/a	n/a	n/a	n/a	n/a	n/a	n/a	ITI	poldrack-single-stim	s627	False	0
361.165	2.498	363.663	0.5182551303968508	draw_card	2.498	columbia_card_task_fmri	15.0	0.8333333333333334	89.0	-80.0	0.1666666666666666	6.0	1.0	1.0	2.476883721885549	2.498	1.0	stim	poldrack-single-stim	s627	False	0
364.419	1.5	363.668	n/a	-1.0	2.454	columbia_card_task_fmri	n/a	n/a	-1.0	n/a	n/a	n/a	n/a	n/a	n/a	n/a	n/a	ITI	poldrack-single-stim	s627	False	0
366.127	2.187	368.314	2.1849217970635166	draw_card	2.187	columbia_card_task_fmri	16.0	0.8333333333333334	89.0	-75.0	0.1666666666666666	6.0	1.0	1.0	0.987304462372748	2.187	n/a	stim	poldrack-single-stim	s627	False	1
368.316	0.53	368.846	-0.8484115362698164	draw_card	0.53	columbia_card_task_fmri	16.0	0.8	89.0	-75.0	0.2	6.0	2.0	1.0	3.4717691913645794	0.53	2.0	stim	poldrack-single-stim	s627	False	0
369.605	1.5	368.854	n/a	-1.0	2.522	columbia_card_task_fmri	n/a	n/a	-1.0	n/a	n/a	n/a	n/a	n/a	n/a	n/a	n/a	ITI	poldrack-single-stim	s627	False	0
371.38	2.545	373.925	3.3515884637301827	draw_card	2.545	columbia_card_task_fmri	21.0	0.75	89.0	-55.0	0.25	8.0	1.0	2.0	-0.0166065805028878	2.545	n/a	stim	poldrack-single-stim	s627	False	1
373.935	0.554	374.489	0.6373027494444694	draw_card	0.554	columbia_card_task_fmri	21.0	0.7142857142857143	89.0	-55.0	0.2857142857142857	8.0	2.0	2.0	1.4065783412871014	0.554	n/a	stim	poldrack-single-stim	s627	False	1
374.492	0.677	375.169	-2.981744869603148	draw_card	0.677	columbia_card_task_fmri	21.0	0.6666666666666667	89.0	-55.0	0.3333333333333333	8.0	3.0	2.0	2.8989138626937603	0.677	n/a	stim	poldrack-single-stim	s627	False	1
375.173	1.306	376.479	-8.048411536269818	draw_card	1.306	columbia_card_task_fmri	21.0	0.6	89.0	-55.0	0.4	8.0	4.0	2.0	4.303452943474312	1.306	n/a	stim	poldrack-single-stim	s627	False	1
376.483	0.89	377.373	-15.648411536269816	end_round	0.89	columbia_card_task_fmri	21.0	0.5	71.0	-55.0	0.5	8.0	5.0	2.0	5.070713677905836	0.89	4.0	stim	poldrack-single-stim	s627	False	1
378.126	1.5	377.375	n/a	-1.0	2.454	columbia_card_task_fmri	n/a	n/a	-1.0	n/a	n/a	n/a	n/a	n/a	n/a	n/a	n/a	ITI	poldrack-single-stim	s627	False	0
379.834	4.276	384.11	4.601588463730183	draw_card	4.276	columbia_card_task_fmri	26.0	0.75	89.0	-65.0	0.25	8.0	1.0	2.0	6.474013791408218	4.276	n/a	stim	poldrack-single-stim	s627	False	1
384.113	4.272	388.385	1.3515884637301865	draw_card	4.272	columbia_card_task_fmri	26.0	0.7142857142857143	89.0	-65.0	0.2857142857142857	8.0	2.0	2.0	8.178506672280847	4.272	n/a	stim	poldrack-single-stim	s627	False	1
388.389	0.811	389.2	-2.981744869603146	draw_card	0.811	columbia_card_task_fmri	26.0	0.6666666666666667	89.0	-65.0	0.3333333333333333	8.0	3.0	2.0	9.965783018038294	0.811	3.0	stim	poldrack-single-stim	s627	False	0
389.955	1.5	389.204	n/a	-1.0	2.658	columbia_card_task_fmri	n/a	n/a	-1.0	n/a	n/a	n/a	n/a	n/a	n/a	n/a	n/a	ITI	poldrack-single-stim	s627	False	0
391.866	1.45	393.316	-0.3150782029364831	draw_card	1.45	columbia_card_task_fmri	15.0	0.7777777777777778	89.0	-60.0	0.2222222222222222	9.0	1.0	2.0	-1.7435571461003398	1.45	n/a	stim	poldrack-single-stim	s627	False	1
393.32	0.519	393.839	-2.3984115362698173	draw_card	0.519	columbia_card_task_fmri	15.0	0.75	89.0	-60.0	0.25	9.0	2.0	2.0	-0.4492496865156425	0.519	n/a	stim	poldrack-single-stim	s627	False	1
393.844	0.627	394.471	-5.076982964841244	draw_card	0.627	columbia_card_task_fmri	15.0	0.7142857142857143	89.0	-60.0	0.2857142857142857	9.0	3.0	2.0	0.9551786896834996	0.627	3.0	stim	poldrack-single-stim	s627	False	0
395.23	1.5	394.479	n/a	-1.0	2.386	columbia_card_task_fmri	n/a	n/a	-1.0	n/a	n/a	n/a	n/a	n/a	n/a	n/a	n/a	ITI	poldrack-single-stim	s627	False	0
396.869	1.928	398.797	4.051588463730184	draw_card	1.928	columbia_card_task_fmri	13.0	0.9	89.0	-90.0	0.1	10.0	1.0	1.0	-2.0237698476557178	1.928	n/a	stim	poldrack-single-stim	s627	False	1
398.801	0.646	399.447	2.907144019285738	draw_card	0.646	columbia_card_task_fmri	13.0	0.8888888888888888	89.0	-90.0	0.1111111111111111	10.0	2.0	1.0	-0.555333100887097	0.646	n/a	stim	poldrack-single-stim	s627	False	1
399.45	0.615	400.065	1.476588463730183	end_round	0.615	columbia_card_task_fmri	13.0	0.875	71.0	-90.0	0.125	10.0	3.0	1.0	1.1375361988845685	0.615	2.0	stim	poldrack-single-stim	s627	False	1
400.822	1.5	400.071	n/a	-1.0	2.522	columbia_card_task_fmri	n/a	n/a	-1.0	n/a	n/a	n/a	n/a	n/a	n/a	n/a	n/a	ITI	poldrack-single-stim	s627	False	0
402.597	1.907	404.504	5.351588463730183	draw_card	1.907	columbia_card_task_fmri	15.0	0.9	89.0	-95.0	0.1	10.0	1.0	1.0	0.0743516058699711	1.907	n/a	stim	poldrack-single-stim	s627	False	1
404.508	0.751	405.259	4.12936624150796	draw_card	0.751	columbia_card_task_fmri	15.0	0.8888888888888888	89.0	-95.0	0.1111111111111111	10.0	2.0	1.0	1.6427611994977482	0.751	n/a	stim	poldrack-single-stim	s627	False	1
405.263	0.709	405.972	2.6015884637301827	draw_card	0.709	columbia_card_task_fmri	15.0	0.875	89.0	-95.0	0.125	10.0	3.0	1.0	3.4508641332664567	0.709	n/a	stim	poldrack-single-stim	s627	False	1
405.975	0.759	406.734	0.6373027494444694	end_round	0.759	columbia_card_task_fmri	15.0	0.8571428571428572	71.0	-95.0	0.1428571428571428	10.0	4.0	1.0	5.562388414498606	0.759	3.0	stim	poldrack-single-stim	s627	False	1
407.49	1.5	406.739	n/a	-1.0	2.59	columbia_card_task_fmri	n/a	n/a	-1.0	n/a	n/a	n/a	n/a	n/a	n/a	n/a	n/a	ITI	poldrack-single-stim	s627	False	0
409.333	2.057	411.39	1.1515884637301836	draw_card	2.057	columbia_card_task_fmri	16.0	0.8	89.0	-65.0	0.2	10.0	1.0	2.0	-0.5251364823578939	2.057	n/a	stim	poldrack-single-stim	s627	False	1
411.394	0.488	411.882	-0.6484115362698153	draw_card	0.488	columbia_card_task_fmri	16.0	0.7777777777777778	89.0	-65.0	0.2222222222222222	10.0	2.0	2.0	0.7487140311583715	0.488	n/a	stim	poldrack-single-stim	s627	False	1
411.886	0.697	412.583	-2.8984115362698173	draw_card	0.697	columbia_card_task_fmri	16.0	0.75	89.0	-65.0	0.25	10.0	3.0	2.0	2.1467456772897293	0.697	n/a	stim	poldrack-single-stim	s627	False	1
412.586	3.064	415.65	-5.791268679126958	draw_card	3.064	columbia_card_task_fmri	16.0	0.7142857142857143	89.0	-65.0	0.2857142857142857	10.0	4.0	2.0	3.6637076808611297	3.064	n/a	stim	poldrack-single-stim	s627	False	1
415.654	0.625	416.279	-9.648411536269814	end_round	0.625	columbia_card_task_fmri	16.0	0.6666666666666667	71.0	-65.0	0.3333333333333333	10.0	5.0	2.0	5.254364290054852	0.625	4.0	stim	poldrack-single-stim	s627	False	1
417.033	1.5	416.282	n/a	-1.0	2.386	columbia_card_task_fmri	n/a	n/a	-1.0	n/a	n/a	n/a	n/a	n/a	n/a	n/a	n/a	ITI	poldrack-single-stim	s627	False	0
418.671	2.33	421.001	-0.148411536269817	draw_card	2.33	columbia_card_task_fmri	7.0	0.9166666666666666	89.0	-95.0	0.0833333333333333	12.0	1.0	1.0	-4.729623430959101	2.33	n/a	stim	poldrack-single-stim	s627	False	1
421.005	1.226	422.231	-0.9211388089970904	draw_card	1.226	columbia_card_task_fmri	7.0	0.9090909090909092	89.0	-95.0	0.0909090909090909	12.0	2.0	1.0	-3.5992441493800342	1.226	n/a	stim	poldrack-single-stim	s627	False	1
422.234	0.679	422.913	-1.8484115362698168	draw_card	0.679	columbia_card_task_fmri	7.0	0.9	89.0	-95.0	0.1	12.0	3.0	1.0	-2.323480465633729	0.679	n/a	stim	poldrack-single-stim	s627	False	1
422.916	1.58	424.496	-2.981744869603151	draw_card	1.58	columbia_card_task_fmri	7.0	0.8888888888888888	89.0	-95.0	0.1111111111111111	12.0	4.0	1.0	-0.8693265035598401	1.58	n/a	stim	poldrack-single-stim	s627	False	1
424.501	0.904	425.405	-4.398411536269817	end_round	0.904	columbia_card_task_fmri	7.0	0.875	71.0	-95.0	0.125	12.0	5.0	1.0	0.8070798549794063	0.904	4.0	stim	poldrack-single-stim	s627	False	1
426.163	1.5	425.412	n/a	-1.0	2.59	columbia_card_task_fmri	n/a	n/a	-1.0	n/a	n/a	n/a	n/a	n/a	n/a	n/a	n/a	ITI	poldrack-single-stim	s627	False	0
428.005	2.089	430.094	0.5182551303968508	draw_card	2.089	columbia_card_task_fmri	14.0	0.8333333333333334	89.0	-75.0	0.1666666666666666	12.0	1.0	2.0	0.2425529682408083	2.089	1.0	stim	poldrack-single-stim	s627	False	0
430.852	1.5	430.101	n/a	-1.0	2.318	columbia_card_task_fmri	n/a	n/a	-1.0	n/a	n/a	n/a	n/a	n/a	n/a	n/a	n/a	ITI	poldrack-single-stim	s627	False	0
432.422	2.166	434.588	2.1849217970635166	draw_card	2.166	columbia_card_task_fmri	15.0	0.8333333333333334	89.0	-70.0	0.1666666666666666	12.0	1.0	2.0	-1.2468647911120383	2.166	n/a	stim	poldrack-single-stim	s627	False	1
434.593	1.691	436.284	0.8970430091847261	draw_card	1.691	columbia_card_task_fmri	15.0	0.8181818181818181	89.0	-70.0	0.1818181818181818	12.0	2.0	2.0	-0.1414246238894065	1.691	n/a	stim	poldrack-single-stim	s627	False	1
436.287	2.285	438.572	-0.6484115362698171	draw_card	2.285	columbia_card_task_fmri	15.0	0.8	89.0	-70.0	0.2	12.0	3.0	2.0	1.073538520749132	2.285	3.0	stim	poldrack-single-stim	s627	False	0
439.33	1.5	438.579	n/a	-1.0	2.25	columbia_card_task_fmri	n/a	n/a	-1.0	n/a	n/a	n/a	n/a	n/a	n/a	n/a	n/a	ITI	poldrack-single-stim	s627	False	0
440.833	3.081	443.914	0.1515884637301836	draw_card	3.081	columbia_card_task_fmri	16.0	0.8	89.0	-70.0	0.2	15.0	1.0	3.0	1.4732265073909616	3.081	n/a	stim	poldrack-single-stim	s627	False	1
443.918	0.498	444.416	-1.076982964841246	draw_card	0.498	columbia_card_task_fmri	16.0	0.7857142857142857	89.0	-70.0	0.2142857142857142	15.0	2.0	3.0	2.3605867571651302	0.498	n/a	stim	poldrack-single-stim	s627	False	1
444.42	0.529	444.949	-2.494565382423664	draw_card	0.529	columbia_card_task_fmri	16.0	0.7692307692307692	89.0	-70.0	0.2307692307692307	15.0	3.0	3.0	3.305837869068448	0.529	n/a	stim	poldrack-single-stim	s627	False	1
444.953	0.665	445.618	-4.148411536269817	draw_card	0.665	columbia_card_task_fmri	16.0	0.75	89.0	-70.0	0.25	15.0	4.0	3.0	4.3102967088466	0.665	4.0	stim	poldrack-single-stim	s627	False	0
446.374	1.5	445.623	n/a	-1.0	2.454	columbia_card_task_fmri	n/a	n/a	-1.0	n/a	n/a	n/a	n/a	n/a	n/a	n/a	n/a	ITI	poldrack-single-stim	s627	False	0
448.082	1.817	449.899	0.5390884637301829	draw_card	1.817	columbia_card_task_fmri	14.0	0.8125	89.0	-65.0	0.1875	16.0	1.0	3.0	-2.089029699023474	1.817	n/a	stim	poldrack-single-stim	s627	False	1
449.903	0.434	450.337	-0.448411536269816	draw_card	0.434	columbia_card_task_fmri	14.0	0.8	89.0	-65.0	0.2	16.0	2.0	3.0	-1.324423734310752	0.434	n/a	stim	poldrack-single-stim	s627	False	1
450.342	0.455	450.797	-1.576982964841244	draw_card	0.455	columbia_card_task_fmri	14.0	0.7857142857142857	89.0	-65.0	0.2142857142857142	16.0	3.0	3.0	-0.509403796159333	0.455	n/a	stim	poldrack-single-stim	s627	False	1
450.801	0.42	451.221	-2.879180767039049	draw_card	0.42	columbia_card_task_fmri	14.0	0.7692307692307692	89.0	-65.0	0.2307692307692307	16.0	4.0	3.0	0.3587936642049243	0.42	n/a	stim	poldrack-single-stim	s627	False	1
451.226	0.604	451.83	-4.398411536269817	draw_card	0.604	columbia_card_task_fmri	14.0	0.75	89.0	-65.0	0.25	16.0	5.0	3.0	1.281378811016694	0.604	n/a	stim	poldrack-single-stim	s627	False	1
451.834	1.088	452.922	-6.193866081724362	draw_card	1.088	columbia_card_task_fmri	14.0	0.7272727272727273	89.0	-65.0	0.2727272727272727	16.0	6.0	3.0	2.2562157689668467	1.088	6.0	stim	poldrack-single-stim	s627	False	0
453.679	1.5	452.928	n/a	-1.0	3.27	columbia_card_task_fmri	n/a	n/a	-1.0	n/a	n/a	n/a	n/a	n/a	n/a	n/a	n/a	ITI	poldrack-single-stim	s627	False	0
456.203	2.361	458.564	0.2890884637301829	draw_card	2.361	columbia_card_task_fmri	16.0	0.8125	89.0	-75.0	0.1875	16.0	1.0	3.0	2.5908174679161746	2.361	n/a	stim	poldrack-single-stim	s627	False	1
458.568	0.582	459.15	-0.8484115362698164	draw_card	0.582	columbia_card_task_fmri	16.0	0.8	89.0	-75.0	0.2	16.0	2.0	3.0	3.4717691913645794	0.582	n/a	stim	poldrack-single-stim	s627	False	1
459.153	0.4	459.553	-2.1484115362698155	draw_card	0.4	columbia_card_task_fmri	16.0	0.7857142857142857	89.0	-75.0	0.2142857142857142	16.0	3.0	3.0	4.410795554067327	0.4	n/a	stim	poldrack-single-stim	s627	False	1
459.557	0.371	459.928	-3.648411536269821	draw_card	0.371	columbia_card_task_fmri	16.0	0.7692307692307692	89.0	-75.0	0.2307692307692307	16.0	4.0	3.0	5.411079385805046	0.371	n/a	stim	poldrack-single-stim	s627	False	1
459.931	0.661	460.592	-5.398411536269817	end_round	0.661	columbia_card_task_fmri	16.0	0.75	71.0	-75.0	0.25	16.0	5.0	3.0	6.474013791408218	0.661	4.0	stim	poldrack-single-stim	s627	False	1
461.352	1.5	460.601	n/a	-1.0	2.25	columbia_card_task_fmri	n/a	n/a	-1.0	n/a	n/a	n/a	n/a	n/a	n/a	n/a	n/a	ITI	poldrack-single-stim	s627	False	0
462.856	2.477	465.333	4.551588463730184	draw_card	2.477	columbia_card_task_fmri	16.0	0.8666666666666667	89.0	-80.0	0.1333333333333333	15.0	1.0	2.0	-0.2916132415134171	2.477	n/a	stim	poldrack-single-stim	s627	False	1
465.336	0.397	465.733	3.637302749444471	draw_card	0.397	columbia_card_task_fmri	16.0	0.8571428571428572	89.0	-80.0	0.1428571428571428	15.0	2.0	2.0	0.666865796801531	0.397	n/a	stim	poldrack-single-stim	s627	False	1
465.738	0.458	466.196	2.5823576944994127	draw_card	0.458	columbia_card_task_fmri	16.0	0.8461538461538461	89.0	-80.0	0.1538461538461538	15.0	3.0	2.0	1.7099614792484914	0.458	n/a	stim	poldrack-single-stim	s627	False	1
466.2	0.457	466.657	1.3515884637301847	draw_card	0.457	columbia_card_task_fmri	16.0	0.8333333333333334	89.0	-80.0	0.1666666666666666	15.0	4.0	2.0	2.8492932696834785	0.457	n/a	stim	poldrack-single-stim	s627	False	1
466.661	1.511	468.172	-0.1029569908152738	draw_card	1.511	columbia_card_task_fmri	16.0	0.8181818181818181	89.0	-80.0	0.1818181818181818	15.0	5.0	2.0	4.098027275169038	1.511	n/a	stim	poldrack-single-stim	s627	False	1
468.177	0.887	469.064	-1.8484115362698164	end_round	0.887	columbia_card_task_fmri	16.0	0.8	71.0	-80.0	0.2	15.0	6.0	2.0	5.470463530172495	0.887	5.0	stim	poldrack-single-stim	s627	False	1
469.821	1.5	469.07	n/a	-1.0	2.25	columbia_card_task_fmri	n/a	n/a	-1.0	n/a	n/a	n/a	n/a	n/a	n/a	n/a	n/a	ITI	poldrack-single-stim	s627	False	0
471.325	2.021	473.346	5.418255130396851	draw_card	2.021	columbia_card_task_fmri	17.0	0.8666666666666667	89.0	-80.0	0.1333333333333333	15.0	1.0	2.0	0.0480332099532461	2.021	n/a	stim	poldrack-single-stim	s627	False	1
473.35	0.638	473.988	4.494445606587329	draw_card	0.638	columbia_card_task_fmri	17.0	0.8571428571428572	89.0	-80.0	0.1428571428571428	15.0	2.0	2.0	1.0165129294113484	0.638	n/a	stim	poldrack-single-stim	s627	False	1
473.992	0.457	474.449	3.42851154065326	draw_card	0.457	columbia_card_task_fmri	17.0	0.8461538461538461	89.0	-80.0	0.1538461538461538	15.0	3.0	2.0	2.07049113675437	0.457	n/a	stim	poldrack-single-stim	s627	False	1
474.453	0.79	475.243	2.1849217970635184	draw_card	0.79	columbia_card_task_fmri	17.0	0.8333333333333334	89.0	-80.0	0.1666666666666666	15.0	4.0	2.0	3.2217083466446894	0.79	n/a	stim	poldrack-single-stim	s627	False	1
475.246	0.881	476.127	0.7152248273665445	draw_card	0.881	columbia_card_task_fmri	17.0	0.8181818181818181	89.0	-80.0	0.1818181818181818	15.0	5.0	2.0	4.483467819092446	0.881	n/a	stim	poldrack-single-stim	s627	False	1
476.131	1.76	477.891	-1.0484115362698156	draw_card	1.76	columbia_card_task_fmri	17.0	0.8	89.0	-80.0	0.2	15.0	6.0	2.0	5.870218535386499	1.76	n/a	stim	poldrack-single-stim	s627	False	1
477.895	0.946	478.841	-3.2039670918253726	end_round	0.946	columbia_card_task_fmri	17.0	0.7777777777777778	71.0	-80.0	0.2222222222222222	15.0	7.0	2.0	7.3960798947193	0.946	6.0	stim	poldrack-single-stim	s627	False	1
479.597	1.5	478.846	n/a	-1.0	2.318	columbia_card_task_fmri	n/a	n/a	-1.0	n/a	n/a	n/a	n/a	n/a	n/a	n/a	n/a	ITI	poldrack-single-stim	s627	False	0
481.17	2.773	483.943	1.351588463730183	draw_card	2.773	columbia_card_task_fmri	1.0	0.9375	89.0	-15.0	0.0625	16.0	1.0	1.0	-28.85126823577517	2.773	n/a	stim	poldrack-single-stim	s627	False	1
483.946	0.842	484.788	1.2849217970635165	draw_card	0.842	columbia_card_task_fmri	1.0	0.9333333333333332	89.0	-15.0	0.0666666666666666	16.0	2.0	1.0	-28.739566497360777	0.842	n/a	stim	poldrack-single-stim	s627	False	1
484.792	0.945	485.737	1.20873132087304	draw_card	0.945	columbia_card_task_fmri	1.0	0.9285714285714286	89.0	-15.0	0.0714285714285714	16.0	3.0	1.0	-28.616682749056977	0.945	n/a	stim	poldrack-single-stim	s627	False	1
485.74	1.164	486.904	1.120819232960952	draw_card	1.164	columbia_card_task_fmri	1.0	0.9230769230769232	89.0	-15.0	0.0769230769230769	16.0	4.0	1.0	-28.480698080032	1.164	n/a	stim	poldrack-single-stim	s627	False	1
486.909	2.196	489.105	1.0182551303968497	end_round	2.196	columbia_card_task_fmri	1.0	0.9166666666666666	71.0	-15.0	0.0833333333333333	16.0	5.0	1.0	-28.3292104663542	2.196	4.0	stim	poldrack-single-stim	s627	False	1
489.863	1.5	489.112	n/a	-1.0	2.726	columbia_card_task_fmri	n/a	n/a	-1.0	n/a	n/a	n/a	n/a	n/a	n/a	n/a	n/a	ITI	poldrack-single-stim	s627	False	0
491.844	1.943	493.787	4.476588463730183	draw_card	1.943	columbia_card_task_fmri	10.0	0.9375	89.0	-100.0	0.0625	16.0	1.0	1.0	-6.292273343657431	1.943	n/a	stim	poldrack-single-stim	s627	False	1
493.791	0.697	494.488	4.01825513039685	draw_card	0.697	columbia_card_task_fmri	10.0	0.9333333333333332	89.0	-100.0	0.0666666666666666	16.0	2.0	1.0	-5.481226339784676	0.697	n/a	stim	poldrack-single-stim	s627	False	1
494.492	1.104	495.596	3.494445606587327	draw_card	1.104	columbia_card_task_fmri	10.0	0.9285714285714286	89.0	-100.0	0.0714285714285714	16.0	3.0	1.0	-4.591760281199573	1.104	n/a	stim	poldrack-single-stim	s627	False	1
495.601	0.559	496.16	2.890050002191722	draw_card	0.559	columbia_card_task_fmri	10.0	0.9230769230769232	89.0	-100.0	0.0769230769230769	16.0	4.0	1.0	-3.6105414023525775	0.559	n/a	stim	poldrack-single-stim	s627	False	1
496.163	0.836	496.999	2.1849217970635166	draw_card	0.836	columbia_card_task_fmri	10.0	0.9166666666666666	89.0	-100.0	0.0833333333333333	16.0	5.0	1.0	-2.5208928266466373	0.836	n/a	stim	poldrack-single-stim	s627	False	1
497.004	2.012	499.016	1.3515884637301812	draw_card	2.012	columbia_card_task_fmri	10.0	0.9090909090909092	89.0	-100.0	0.0909090909090909	16.0	6.0	1.0	-1.3016679231706405	2.012	n/a	stim	poldrack-single-stim	s627	False	1
499.02	1.123	500.143	0.3515884637301829	draw_card	1.123	columbia_card_task_fmri	10.0	0.9	89.0	-100.0	0.1	16.0	7.0	1.0	0.0743516058699711	1.123	n/a	stim	poldrack-single-stim	s627	False	1
500.146	1.108	501.254	-0.8706337584920385	end_round	1.108	columbia_card_task_fmri	10.0	0.8888888888888888	71.0	-100.0	0.1111111111111111	16.0	8.0	1.0	1.6427611994977482	1.108	7.0	stim	poldrack-single-stim	s627	False	1
502.012	1.5	501.261	n/a	-1.0	2.386	columbia_card_task_fmri	n/a	n/a	-1.0	n/a	n/a	n/a	n/a	n/a	n/a	n/a	n/a	ITI	poldrack-single-stim	s627	False	0
503.653	3.111	506.764	5.101588463730183	draw_card	3.111	columbia_card_task_fmri	15.0	0.875	89.0	-75.0	0.125	16.0	1.0	2.0	-3.1579417961067837	3.111	n/a	stim	poldrack-single-stim	s627	False	1
506.768	0.517	507.285	4.351588463730183	draw_card	0.517	columbia_card_task_fmri	15.0	0.8666666666666667	89.0	-75.0	0.1333333333333333	16.0	2.0	2.0	-2.3293576527206383	0.517	2.0	stim	poldrack-single-stim	s627	False	0
508.042	1.5	507.291	n/a	-1.0	2.318	columbia_card_task_fmri	n/a	n/a	-1.0	n/a	n/a	n/a	n/a	n/a	n/a	n/a	n/a	ITI	poldrack-single-stim	s627	False	0
509.615	3.122	512.737	5.351588463730183	draw_card	3.122	columbia_card_task_fmri	16.0	0.875	89.0	-80.0	0.125	16.0	1.0	2.0	-1.1755434833910812	3.122	n/a	stim	poldrack-single-stim	s627	False	1
512.742	0.504	513.246	4.551588463730184	draw_card	0.504	columbia_card_task_fmri	16.0	0.8666666666666667	89.0	-80.0	0.1333333333333333	16.0	2.0	2.0	-0.2916132415134171	0.504	n/a	stim	poldrack-single-stim	s627	False	1
513.251	1.888	515.139	3.637302749444471	draw_card	1.888	columbia_card_task_fmri	16.0	0.8571428571428572	89.0	-80.0	0.1428571428571428	16.0	3.0	2.0	0.666865796801531	1.888	n/a	stim	poldrack-single-stim	s627	False	1
515.144	0.55	515.694	2.5823576944994127	draw_card	0.55	columbia_card_task_fmri	16.0	0.8461538461538461	89.0	-80.0	0.1538461538461538	16.0	4.0	2.0	1.7099614792484914	0.55	n/a	stim	poldrack-single-stim	s627	False	1
515.699	1.848	517.547	1.3515884637301847	draw_card	1.848	columbia_card_task_fmri	16.0	0.8333333333333334	89.0	-80.0	0.1666666666666666	16.0	5.0	2.0	2.8492932696834785	1.848	n/a	stim	poldrack-single-stim	s627	False	1
517.552	0.685	518.237	-0.1029569908152738	end_round	0.685	columbia_card_task_fmri	16.0	0.8181818181818181	71.0	-80.0	0.1818181818181818	16.0	6.0	2.0	4.098027275169038	0.685	5.0	stim	poldrack-single-stim	s627	False	1
518.996	1.5	518.245	n/a	-1.0	2.25	columbia_card_task_fmri	n/a	n/a	-1.0	n/a	n/a	n/a	n/a	n/a	n/a	n/a	n/a	ITI	poldrack-single-stim	s627	False	0
520.499	4.602	525.101	2.5390884637301827	draw_card	4.602	columbia_card_task_fmri	4.0	0.6875	89.0	-5.0	0.3125	16.0	1.0	5.0	-28.568211677473283	4.602	1.0	stim	poldrack-single-stim	s627	False	0
525.86	1.5	525.109	n/a	-1.0	2.25	columbia_card_task_fmri	n/a	n/a	-1.0	n/a	n/a	n/a	n/a	n/a	n/a	n/a	n/a	ITI	poldrack-single-stim	s627	False	0
527.365	2.561	529.926	-0.3150782029364813	draw_card	2.561	columbia_card_task_fmri	14.0	0.8333333333333334	89.0	-80.0	0.1666666666666666	6.0	1.0	1.0	2.1044798794553543	2.561	1.0	stim	poldrack-single-stim	s627	False	0
530.686	1.5	529.935	n/a	-1.0	2.454	columbia_card_task_fmri	n/a	n/a	-1.0	n/a	n/a	n/a	n/a	n/a	n/a	n/a	n/a	ITI	poldrack-single-stim	s627	False	0
532.395	1.083	533.478	1.351588463730183	draw_card	1.083	columbia_card_task_fmri	15.0	0.8333333333333334	89.0	-75.0	0.1666666666666666	6.0	1.0	1.0	0.6149253610667387	1.083	n/a	stim	poldrack-single-stim	s627	False	1
533.483	0.42	533.903	-1.648411536269817	draw_card	0.42	columbia_card_task_fmri	15.0	0.8	89.0	-75.0	0.2	6.0	2.0	1.0	3.072047714488143	0.42	n/a	stim	poldrack-single-stim	s627	False	1
533.907	1.284	535.191	-6.148411536269817	draw_card	1.284	columbia_card_task_fmri	15.0	0.75	89.0	-75.0	0.25	6.0	3.0	1.0	6.041258417569203	1.284	3.0	stim	poldrack-single-stim	s627	False	0
535.948	1.5	535.197	n/a	-1.0	2.454	columbia_card_task_fmri	n/a	n/a	-1.0	n/a	n/a	n/a	n/a	n/a	n/a	n/a	n/a	ITI	poldrack-single-stim	s627	False	0
537.657	0.965	538.622	3.0182551303968506	draw_card	0.965	columbia_card_task_fmri	16.0	0.8333333333333334	89.0	-70.0	0.1666666666666666	6.0	1.0	1.0	-0.8745216232053963	0.965	n/a	stim	poldrack-single-stim	s627	False	1
538.627	0.397	539.024	0.1515884637301836	draw_card	0.397	columbia_card_task_fmri	16.0	0.8	89.0	-70.0	0.2	6.0	2.0	1.0	1.4732265073909616	0.397	n/a	stim	poldrack-single-stim	s627	False	1
539.029	0.881	539.91	-4.148411536269817	draw_card	0.881	columbia_card_task_fmri	16.0	0.75	89.0	-70.0	0.25	6.0	3.0	1.0	4.3102967088466	0.881	n/a	stim	poldrack-single-stim	s627	False	1
539.915	0.539	540.454	-11.315078202936482	end_round	0.539	columbia_card_task_fmri	16.0	0.6666666666666667	71.0	-70.0	0.3333333333333333	6.0	4.0	1.0	7.609997366612099	0.539	3.0	stim	poldrack-single-stim	s627	False	1
541.21	1.5	540.459	n/a	-1.0	2.522	columbia_card_task_fmri	n/a	n/a	-1.0	n/a	n/a	n/a	n/a	n/a	n/a	n/a	n/a	ITI	poldrack-single-stim	s627	False	0
542.985	2.686	545.671	3.6015884637301827	draw_card	2.686	columbia_card_task_fmri	23.0	0.75	89.0	-60.0	0.25	8.0	1.0	2.0	3.012144245847921	2.686	n/a	stim	poldrack-single-stim	s627	False	1
545.674	0.433	546.107	0.6373027494444712	draw_card	0.433	columbia_card_task_fmri	23.0	0.7142857142857143	89.0	-60.0	0.2857142857142857	8.0	2.0	2.0	4.566614700123637	0.433	n/a	stim	poldrack-single-stim	s627	False	1
546.112	2.385	548.497	-3.3150782029364816	draw_card	2.385	columbia_card_task_fmri	23.0	0.6666666666666667	89.0	-60.0	0.3333333333333333	8.0	3.0	2.0	6.196597449023884	2.385	n/a	stim	poldrack-single-stim	s627	False	1
548.501	2.844	551.345	-8.848411536269818	draw_card	2.844	columbia_card_task_fmri	23.0	0.6	89.0	-60.0	0.4	8.0	4.0	2.0	7.730671462567471	2.844	n/a	stim	poldrack-single-stim	s627	False	1
551.349	1.537	552.886	-17.148411536269816	end_round	1.537	columbia_card_task_fmri	23.0	0.5	71.0	-60.0	0.5	8.0	5.0	2.0	8.568688247995247	1.537	4.0	stim	poldrack-single-stim	s627	False	1
553.641	1.5	552.89	n/a	-1.0	2.386	columbia_card_task_fmri	n/a	n/a	-1.0	n/a	n/a	n/a	n/a	n/a	n/a	n/a	n/a	ITI	poldrack-single-stim	s627	False	0
555.282	2.775	558.057	4.101588463730183	draw_card	2.775	columbia_card_task_fmri	27.0	0.75	89.0	-70.0	0.25	8.0	1.0	2.0	9.070657364251607	2.775	1.0	stim	poldrack-single-stim	s627	False	0
558.814	1.5	558.063	n/a	-1.0	2.454	columbia_card_task_fmri	n/a	n/a	-1.0	n/a	n/a	n/a	n/a	n/a	n/a	n/a	n/a	ITI	poldrack-single-stim	s627	False	0
560.522	2.83	563.352	-0.6484115362698153	draw_card	2.83	columbia_card_task_fmri	16.0	0.7777777777777778	89.0	-65.0	0.2222222222222222	9.0	1.0	2.0	0.7487140311583715	2.83	n/a	stim	poldrack-single-stim	s627	False	1
563.357	0.46	563.817	-2.8984115362698173	draw_card	0.46	columbia_card_task_fmri	16.0	0.75	89.0	-65.0	0.25	9.0	2.0	2.0	2.1467456772897293	0.46	2.0	stim	poldrack-single-stim	s627	False	0
564.576	1.5	563.825	n/a	-1.0	2.522	columbia_card_task_fmri	n/a	n/a	-1.0	n/a	n/a	n/a	n/a	n/a	n/a	n/a	n/a	ITI	poldrack-single-stim	s627	False	0
566.352	4.674	571.026	4.551588463730184	draw_card	4.674	columbia_card_task_fmri	13.0	0.9	89.0	-85.0	0.1	10.0	1.0	1.0	-3.5222639706939702	4.674	n/a	stim	poldrack-single-stim	s627	False	1
571.032	0.594	571.626	3.462699574841293	draw_card	0.594	columbia_card_task_fmri	13.0	0.8888888888888888	89.0	-85.0	0.1111111111111111	10.0	2.0	1.0	-2.1252438099392243	0.594	n/a	stim	poldrack-single-stim	s627	False	1
571.631	0.816	572.447	2.1015884637301827	end_round	0.816	columbia_card_task_fmri	13.0	0.875	71.0	-85.0	0.125	10.0	3.0	1.0	-0.5146920026748063	0.816	2.0	stim	poldrack-single-stim	s627	False	1
573.206	1.5	572.455	n/a	-1.0	2.522	columbia_card_task_fmri	n/a	n/a	-1.0	n/a	n/a	n/a	n/a	n/a	n/a	n/a	n/a	ITI	poldrack-single-stim	s627	False	0
574.985	3.28	578.265	-0.448411536269816	draw_card	3.28	columbia_card_task_fmri	14.0	0.8	89.0	-65.0	0.2	10.0	1.0	2.0	-1.324423734310752	3.28	n/a	stim	poldrack-single-stim	s627	False	1
578.271	0.431	578.702	-2.203967091825371	draw_card	0.431	columbia_card_task_fmri	14.0	0.7777777777777778	89.0	-65.0	0.2222222222222222	10.0	2.0	2.0	-0.0820795563019842	0.431	n/a	stim	poldrack-single-stim	s627	False	1
578.707	0.892	579.599	-4.398411536269817	draw_card	0.892	columbia_card_task_fmri	14.0	0.75	89.0	-65.0	0.25	10.0	3.0	2.0	1.281378811016694	0.892	n/a	stim	poldrack-single-stim	s627	False	1
579.605	0.562	580.167	-7.219840107698387	end_round	0.562	columbia_card_task_fmri	14.0	0.7142857142857143	71.0	-65.0	0.2857142857142857	10.0	4.0	2.0	2.760831054195016	0.562	3.0	stim	poldrack-single-stim	s627	False	1
580.924	1.5	580.173	n/a	-1.0	2.59	columbia_card_task_fmri	n/a	n/a	-1.0	n/a	n/a	n/a	n/a	n/a	n/a	n/a	n/a	ITI	poldrack-single-stim	s627	False	0
582.768	1.626	584.394	0.9515884637301844	draw_card	1.626	columbia_card_task_fmri	17.0	0.8	89.0	-70.0	0.2	10.0	1.0	2.0	1.8729216585553203	1.626	n/a	stim	poldrack-single-stim	s627	False	1
584.4	1.259	585.659	-0.9817448696031492	draw_card	1.259	columbia_card_task_fmri	17.0	0.7777777777777778	89.0	-70.0	0.2222222222222222	10.0	2.0	2.0	3.241283779088647	1.259	n/a	stim	poldrack-single-stim	s627	False	1
585.665	0.871	586.536	-3.3984115362698173	draw_card	0.871	columbia_card_task_fmri	17.0	0.75	89.0	-70.0	0.25	10.0	3.0	2.0	4.743027756231996	0.871	n/a	stim	poldrack-single-stim	s627	False	1
586.54	1.023	587.563	-6.505554393412675	end_round	1.023	columbia_card_task_fmri	17.0	0.7142857142857143	71.0	-70.0	0.2857142857142857	10.0	4.0	2.0	6.372511542729676	1.023	3.0	stim	poldrack-single-stim	s627	False	1
588.32	1.5	587.569	n/a	-1.0	2.454	columbia_card_task_fmri	n/a	n/a	-1.0	n/a	n/a	n/a	n/a	n/a	n/a	n/a	n/a	ITI	poldrack-single-stim	s627	False	0
590.029	2.448	592.477	-0.3150782029364831	draw_card	2.448	columbia_card_task_fmri	13.0	0.8333333333333334	89.0	-75.0	0.1666666666666666	12.0	1.0	2.0	-0.1298124877882145	2.448	1.0	stim	poldrack-single-stim	s627	False	0
593.234	1.5	592.483	n/a	-1.0	2.318	columbia_card_task_fmri	n/a	n/a	-1.0	n/a	n/a	n/a	n/a	n/a	n/a	n/a	n/a	ITI	poldrack-single-stim	s627	False	0
594.807	1.624	596.431	1.3515884637301847	draw_card	1.624	columbia_card_task_fmri	14.0	0.8333333333333334	89.0	-70.0	0.1666666666666666	12.0	1.0	2.0	-1.6191999979120588	1.624	n/a	stim	poldrack-single-stim	s627	False	1
596.436	1.504	597.94	0.0788611910029077	draw_card	1.504	columbia_card_task_fmri	14.0	0.8181818181818181	89.0	-70.0	0.1818181818181818	12.0	2.0	2.0	-0.5267879806667963	1.504	n/a	stim	poldrack-single-stim	s627	False	1
597.946	0.531	598.477	-1.448411536269816	draw_card	0.531	columbia_card_task_fmri	14.0	0.8	89.0	-70.0	0.2	12.0	3.0	2.0	0.6738579540994181	0.531	n/a	stim	poldrack-single-stim	s627	False	1
598.481	0.731	599.212	-3.315078202936484	draw_card	0.731	columbia_card_task_fmri	14.0	0.7777777777777778	89.0	-70.0	0.2222222222222222	12.0	4.0	2.0	1.9949655763401992	0.731	n/a	stim	poldrack-single-stim	s627	False	1
599.218	1.084	600.302	-5.648411536269817	end_round	1.084	columbia_card_task_fmri	14.0	0.75	71.0	-70.0	0.25	12.0	5.0	2.0	3.4448547118467943	1.084	4.0	stim	poldrack-single-stim	s627	False	1
601.063	1.5	600.312	n/a	-1.0	2.25	columbia_card_task_fmri	n/a	n/a	-1.0	n/a	n/a	n/a	n/a	n/a	n/a	n/a	n/a	ITI	poldrack-single-stim	s627	False	0
602.567	2.491	605.058	1.3515884637301847	draw_card	2.491	columbia_card_task_fmri	16.0	0.8333333333333334	89.0	-80.0	0.1666666666666666	12.0	1.0	2.0	2.8492932696834785	2.491	n/a	stim	poldrack-single-stim	s627	False	1
605.063	0.558	605.621	-0.1029569908152738	draw_card	0.558	columbia_card_task_fmri	16.0	0.8181818181818181	89.0	-80.0	0.1818181818181818	12.0	2.0	2.0	4.098027275169038	0.558	n/a	stim	poldrack-single-stim	s627	False	1
605.625	1.258	606.883	-1.8484115362698164	draw_card	1.258	columbia_card_task_fmri	16.0	0.8	89.0	-80.0	0.2	12.0	3.0	2.0	5.470463530172495	1.258	3.0	stim	poldrack-single-stim	s627	False	0
607.641	1.5	606.89	n/a	-1.0	2.658	columbia_card_task_fmri	n/a	n/a	-1.0	n/a	n/a	n/a	n/a	n/a	n/a	n/a	n/a	ITI	poldrack-single-stim	s627	False	0
609.555	2.066	611.621	1.1515884637301836	draw_card	2.066	columbia_card_task_fmri	16.0	0.8	89.0	-65.0	0.2	15.0	1.0	3.0	-0.5251364823578939	2.066	n/a	stim	poldrack-single-stim	s627	False	1
611.627	0.507	612.134	-0.0055543934126729	draw_card	0.507	columbia_card_task_fmri	16.0	0.7857142857142857	89.0	-65.0	0.2142857142857142	15.0	2.0	3.0	0.3105531526913907	0.507	n/a	stim	poldrack-single-stim	s627	False	1
612.14	0.366	612.506	-1.3407192285775105	draw_card	0.366	columbia_card_task_fmri	16.0	0.7692307692307692	89.0	-65.0	0.2307692307692307	15.0	3.0	3.0	1.2007669905933724	0.366	n/a	stim	poldrack-single-stim	s627	False	1
612.51	0.95	613.46	-2.8984115362698173	draw_card	0.95	columbia_card_task_fmri	16.0	0.75	89.0	-65.0	0.25	15.0	4.0	3.0	2.1467456772897293	0.95	n/a	stim	poldrack-single-stim	s627	False	1
613.466	0.648	614.114	-4.739320627178907	draw_card	0.648	columbia_card_task_fmri	16.0	0.7272727272727273	89.0	-65.0	0.2727272727272727	15.0	5.0	3.0	3.14629899438966	0.648	n/a	stim	poldrack-single-stim	s627	False	1
614.119	1.861	615.98	-6.948411536269818	draw_card	1.861	columbia_card_task_fmri	16.0	0.7	89.0	-65.0	0.3	15.0	6.0	3.0	4.19014684319162	1.861	n/a	stim	poldrack-single-stim	s627	False	1
615.984	0.766	616.75	-9.648411536269814	end_round	0.766	columbia_card_task_fmri	16.0	0.6666666666666667	71.0	-65.0	0.3333333333333333	15.0	7.0	3.0	5.254364290054852	0.766	6.0	stim	poldrack-single-stim	s627	False	1
617.51	1.5	616.759	n/a	-1.0	2.454	columbia_card_task_fmri	n/a	n/a	-1.0	n/a	n/a	n/a	n/a	n/a	n/a	n/a	n/a	ITI	poldrack-single-stim	s627	False	0
619.217	1.686	620.903	-0.5234115362698171	draw_card	1.686	columbia_card_task_fmri	15.0	0.8125	89.0	-75.0	0.1875	16.0	1.0	3.0	2.200790514156054	1.686	n/a	stim	poldrack-single-stim	s627	False	1
620.908	0.432	621.34	-1.648411536269817	draw_card	0.432	columbia_card_task_fmri	15.0	0.8	89.0	-75.0	0.2	16.0	2.0	3.0	3.072047714488143	0.432	n/a	stim	poldrack-single-stim	s627	False	1
621.345	0.405	621.75	-2.934125821984102	draw_card	0.405	columbia_card_task_fmri	15.0	0.7857142857142857	89.0	-75.0	0.2142857142857142	16.0	3.0	3.0	4.000741178888546	0.405	3.0	stim	poldrack-single-stim	s627	False	0
622.506	1.5	621.755	n/a	-1.0	2.386	columbia_card_task_fmri	n/a	n/a	-1.0	n/a	n/a	n/a	n/a	n/a	n/a	n/a	n/a	ITI	poldrack-single-stim	s627	False	0
624.146	3.459	627.605	0.0390884637301829	draw_card	3.459	columbia_card_task_fmri	14.0	0.6875	89.0	-35.0	0.3125	16.0	1.0	5.0	-10.20102688439782	3.459	1.0	stim	poldrack-single-stim	s627	False	0
628.361	1.5	627.61	n/a	-1.0	2.59	columbia_card_task_fmri	n/a	n/a	-1.0	n/a	n/a	n/a	n/a	n/a	n/a	n/a	n/a	ITI	poldrack-single-stim	s627	False	0
630.206	2.065	632.271	5.21825513039685	draw_card	2.065	columbia_card_task_fmri	16.0	0.8666666666666667	89.0	-75.0	0.1333333333333333	15.0	1.0	2.0	-1.9897506241789704	2.065	n/a	stim	poldrack-single-stim	s627	False	1
632.277	0.764	633.041	4.3515884637301845	draw_card	0.764	columbia_card_task_fmri	16.0	0.8571428571428572	89.0	-75.0	0.1428571428571428	15.0	2.0	2.0	-1.0812776870774314	0.764	n/a	stim	poldrack-single-stim	s627	False	1
633.046	2.889	635.935	3.3515884637301827	draw_card	2.889	columbia_card_task_fmri	16.0	0.8461538461538461	89.0	-75.0	0.1538461538461538	15.0	3.0	2.0	-0.092597394021368	2.889	n/a	stim	poldrack-single-stim	s627	False	1
635.941	0.494	636.435	2.1849217970635166	draw_card	0.494	columbia_card_task_fmri	16.0	0.8333333333333334	89.0	-75.0	0.1666666666666666	15.0	4.0	2.0	0.987304462372748	0.494	n/a	stim	poldrack-single-stim	s627	False	1
636.44	0.62	637.06	0.8061339182756362	end_round	0.62	columbia_card_task_fmri	16.0	0.8181818181818181	71.0	-75.0	0.1818181818181818	15.0	5.0	2.0	2.1709082234133987	0.62	4.0	stim	poldrack-single-stim	s627	False	1
637.817	1.5	637.066	n/a	-1.0	2.318	columbia_card_task_fmri	n/a	n/a	-1.0	n/a	n/a	n/a	n/a	n/a	n/a	n/a	n/a	ITI	poldrack-single-stim	s627	False	0
639.391	1.99	641.381	5.884921797063516	draw_card	1.99	columbia_card_task_fmri	16.0	0.8666666666666667	89.0	-70.0	0.1333333333333333	15.0	1.0	2.0	-3.6877096973838057	1.99	n/a	stim	poldrack-single-stim	s627	False	1
641.387	0.553	641.94	5.065874178015898	draw_card	0.553	columbia_card_task_fmri	16.0	0.8571428571428572	89.0	-70.0	0.1428571428571428	15.0	2.0	2.0	-2.829247925276011	0.553	n/a	stim	poldrack-single-stim	s627	False	1
641.946	1.044	642.99	4.120819232960951	draw_card	1.044	columbia_card_task_fmri	16.0	0.8461538461538461	89.0	-70.0	0.1538461538461538	15.0	3.0	2.0	-1.8949882159889349	1.044	3.0	stim	poldrack-single-stim	s627	False	0
643.748	1.5	642.997	n/a	-1.0	2.59	columbia_card_task_fmri	n/a	n/a	-1.0	n/a	n/a	n/a	n/a	n/a	n/a	n/a	n/a	ITI	poldrack-single-stim	s627	False	0
645.593	2.8	648.393	3.2265884637301827	draw_card	2.8	columbia_card_task_fmri	8.0	0.9375	89.0	-90.0	0.0625	16.0	1.0	1.0	-9.192819533128688	2.8	n/a	stim	poldrack-single-stim	s627	False	1
648.398	0.427	648.825	2.818255130396849	draw_card	0.427	columbia_card_task_fmri	8.0	0.9333333333333332	89.0	-90.0	0.0666666666666666	16.0	2.0	1.0	-8.470484456974955	0.427	n/a	stim	poldrack-single-stim	s627	False	1
648.831	0.376	649.207	2.351588463730184	draw_card	0.376	columbia_card_task_fmri	8.0	0.9285714285714286	89.0	-90.0	0.0714285714285714	16.0	3.0	1.0	-7.678292379674563	0.376	n/a	stim	poldrack-single-stim	s627	False	1
649.213	0.4	649.613	1.8131269252686448	draw_card	0.4	columbia_card_task_fmri	8.0	0.9230769230769232	89.0	-90.0	0.0769230769230769	16.0	4.0	1.0	-6.804364809448877	0.4	n/a	stim	poldrack-single-stim	s627	False	1
649.618	0.418	650.036	1.184921797063516	draw_card	0.418	columbia_card_task_fmri	8.0	0.9166666666666666	89.0	-90.0	0.0833333333333333	16.0	5.0	1.0	-5.833844952182744	0.418	n/a	stim	poldrack-single-stim	s627	False	1
650.041	0.498	650.539	0.4424975546392737	draw_card	0.498	columbia_card_task_fmri	8.0	0.9090909090909092	89.0	-90.0	0.0909090909090909	16.0	6.0	1.0	-4.747893995069411	0.498	n/a	stim	poldrack-single-stim	s627	False	1
650.544	0.496	651.04	-0.4484115362698169	draw_card	0.496	columbia_card_task_fmri	8.0	0.9	89.0	-90.0	0.1	16.0	7.0	1.0	-3.5222639706939702	0.496	n/a	stim	poldrack-single-stim	s627	False	1
651.043	0.977	652.02	-1.5373004251587064	end_round	0.977	columbia_card_task_fmri	8.0	0.8888888888888888	71.0	-90.0	0.1111111111111111	16.0	8.0	1.0	-2.1252438099392243	0.977	7.0	stim	poldrack-single-stim	s627	False	1
652.779	1.5	652.028	n/a	-1.0	2.386	columbia_card_task_fmri	n/a	n/a	-1.0	n/a	n/a	n/a	n/a	n/a	n/a	n/a	n/a	ITI	poldrack-single-stim	s627	False	0
654.419	3.645	658.064	4.789088463730183	draw_card	3.645	columbia_card_task_fmri	10.0	0.9375	89.0	-95.0	0.0625	16.0	1.0	1.0	-7.500950433084739	3.645	n/a	stim	poldrack-single-stim	s627	False	1
658.067	0.516	658.583	4.351588463730184	draw_card	0.516	columbia_card_task_fmri	10.0	0.9333333333333332	89.0	-95.0	0.0666666666666666	16.0	2.0	1.0	-6.726863322442011	0.516	n/a	stim	poldrack-single-stim	s627	False	1
658.589	0.706	659.295	3.851588463730184	draw_card	0.706	columbia_card_task_fmri	10.0	0.9285714285714286	89.0	-95.0	0.0714285714285714	16.0	3.0	1.0	-5.877924572057207	0.706	n/a	stim	poldrack-single-stim	s627	False	1
659.299	0.511	659.81	3.274665386807106	draw_card	0.511	columbia_card_task_fmri	10.0	0.9230769230769232	89.0	-95.0	0.0769230769230769	16.0	4.0	1.0	-4.941406770413625	0.511	n/a	stim	poldrack-single-stim	s627	False	1
659.815	0.538	660.353	2.6015884637301827	draw_card	0.538	columbia_card_task_fmri	10.0	0.9166666666666666	89.0	-95.0	0.0833333333333333	16.0	5.0	1.0	-3.901391397020156	0.538	n/a	stim	poldrack-single-stim	s627	False	1
660.358	0.42	660.778	1.806133918275636	draw_card	0.42	columbia_card_task_fmri	10.0	0.9090909090909092	89.0	-95.0	0.0909090909090909	16.0	6.0	1.0	-2.7376933983910128	0.42	n/a	stim	poldrack-single-stim	s627	False	1
660.782	1.133	661.915	0.8515884637301829	draw_card	1.133	columbia_card_task_fmri	10.0	0.9	89.0	-95.0	0.1	16.0	7.0	1.0	-1.4243320987489303	1.133	n/a	stim	poldrack-single-stim	s627	False	1
661.92	1.275	663.195	-0.3150782029364831	end_round	1.275	columbia_card_task_fmri	10.0	0.8888888888888888	71.0	-95.0	0.1111111111111111	16.0	8.0	1.0	0.0726694716083002	1.275	7.0	stim	poldrack-single-stim	s627	False	1
663.951	1.5	663.2	n/a	-1.0	2.318	columbia_card_task_fmri	n/a	n/a	-1.0	n/a	n/a	n/a	n/a	n/a	n/a	n/a	n/a	ITI	poldrack-single-stim	s627	False	0
665.523	1.99	667.513	5.726588463730183	draw_card	1.99	columbia_card_task_fmri	15.0	0.875	89.0	-70.0	0.125	16.0	1.0	2.0	-4.809734189147441	1.99	1.0	stim	poldrack-single-stim	s627	False	0
668.271	1.5	667.52	n/a	-1.0	2.318	columbia_card_task_fmri	n/a	n/a	-1.0	n/a	n/a	n/a	n/a	n/a	n/a	n/a	n/a	ITI	poldrack-single-stim	s627	False	0
669.844	0.954	670.798	4.726588463730183	draw_card	0.954	columbia_card_task_fmri	16.0	0.875	89.0	-85.0	0.125	16.0	1.0	2.0	0.476628704166572	0.954	n/a	stim	poldrack-single-stim	s627	False	1
670.804	0.501	671.305	3.884921797063516	draw_card	0.501	columbia_card_task_fmri	16.0	0.8666666666666667	89.0	-85.0	0.1333333333333333	16.0	2.0	2.0	1.4066760134254466	0.501	n/a	stim	poldrack-single-stim	s627	False	1
671.311	0.52	671.831	2.923017035158756	draw_card	0.52	columbia_card_task_fmri	16.0	0.8571428571428572	89.0	-85.0	0.1428571428571428	16.0	3.0	2.0	2.415156837533125	0.52	n/a	stim	poldrack-single-stim	s627	False	1
671.837	0.42	672.257	1.8131269252686428	draw_card	0.42	columbia_card_task_fmri	16.0	0.8461538461538461	89.0	-85.0	0.1538461538461538	16.0	4.0	2.0	3.5126634828720213	0.42	n/a	stim	poldrack-single-stim	s627	False	1
672.262	0.845	673.107	0.5182551303968508	draw_card	0.845	columbia_card_task_fmri	16.0	0.8333333333333334	89.0	-85.0	0.1666666666666666	16.0	5.0	2.0	4.711420665865738	0.845	5.0	stim	poldrack-single-stim	s627	False	0
673.866	1.5	673.115	n/a	-1.0	2.318	columbia_card_task_fmri	n/a	n/a	-1.0	n/a	n/a	n/a	n/a	n/a	n/a	n/a	n/a	ITI	poldrack-single-stim	s627	False	0
