onset	duration	block_duration	condition	correct	correct_response	experiment_exp_id	key_press	response_time	stim_color	stim_word	trial_id	trial_type	worker_id	junk
3.521	1.5	2.0	incongruent	1.0	71.0	stroop	71	0.708	blue	red	stim	incongruent	s627	False
5.525	1.5	2.544	congruent	1.0	82.0	stroop	82	0.56	green	green	stim	congruent	s627	False
8.07	1.5	2.136	congruent	1.0	71.0	stroop	71	0.588	blue	blue	stim	congruent	s627	False
10.211	1.5	2.0	congruent	1.0	71.0	stroop	71	0.774	blue	blue	stim	congruent	s627	False
12.215	1.5	2.0	congruent	1.0	82.0	stroop	82	0.474	green	green	stim	congruent	s627	False
14.22	1.5	2.272	congruent	1.0	82.0	stroop	82	0.54	green	green	stim	congruent	s627	False
16.493	1.5	2.0	incongruent	1.0	82.0	stroop	82	0.688	green	blue	stim	incongruent	s627	False
18.496	1.5	2.0	congruent	1.0	89.0	stroop	89	0.485	red	red	stim	congruent	s627	False
20.497	1.5	2.136	incongruent	1.0	89.0	stroop	89	0.468	red	green	stim	incongruent	s627	False
22.635	1.5	2.0	incongruent	1.0	89.0	stroop	89	0.573	red	green	stim	incongruent	s627	False
24.637	1.5	2.272	incongruent	1.0	82.0	stroop	82	0.679	green	red	stim	incongruent	s627	False
26.91	1.5	2.136	congruent	1.0	82.0	stroop	82	0.554	green	green	stim	congruent	s627	False
29.052	1.5	2.408	incongruent	1.0	71.0	stroop	71	0.475	blue	red	stim	incongruent	s627	False
31.462	1.5	2.0	congruent	1.0	71.0	stroop	71	0.397	blue	blue	stim	congruent	s627	False
33.464	1.5	2.0	congruent	1.0	82.0	stroop	82	0.643	green	green	stim	congruent	s627	False
35.47	1.5	2.816	incongruent	1.0	89.0	stroop	89	0.87	red	green	stim	incongruent	s627	False
38.288	1.5	2.0	incongruent	1.0	89.0	stroop	89	0.592	red	green	stim	incongruent	s627	False
40.29	1.5	2.0	incongruent	1.0	82.0	stroop	82	0.851	green	blue	stim	incongruent	s627	False
42.292	1.5	2.136	congruent	1.0	71.0	stroop	71	0.38	blue	blue	stim	congruent	s627	False
44.43	1.5	2.0	congruent	1.0	89.0	stroop	89	0.476	red	red	stim	congruent	s627	False
46.431	1.5	2.0	incongruent	1.0	71.0	stroop	71	0.391	blue	green	stim	incongruent	s627	False
48.434	1.5	2.0	congruent	0.0	89.0	stroop	82	0.484	red	red	stim	congruent	s627	False
50.436	1.5	2.0	incongruent	1.0	82.0	stroop	82	1.006	green	red	stim	incongruent	s627	False
52.439	1.5	2.0	congruent	1.0	82.0	stroop	82	0.754	green	green	stim	congruent	s627	False
54.44	1.5	2.0	incongruent	1.0	82.0	stroop	82	0.658	green	blue	stim	incongruent	s627	False
56.443	1.5	2.0	congruent	1.0	71.0	stroop	71	0.636	blue	blue	stim	congruent	s627	False
58.447	1.5	2.272	incongruent	1.0	71.0	stroop	71	0.576	blue	green	stim	incongruent	s627	False
60.721	1.5	2.0	incongruent	1.0	89.0	stroop	89	0.393	red	green	stim	incongruent	s627	False
62.722	1.5	2.136	congruent	1.0	71.0	stroop	71	0.591	blue	blue	stim	congruent	s627	False
64.859	1.5	2.0	congruent	1.0	82.0	stroop	82	0.477	green	green	stim	congruent	s627	False
66.861	1.5	2.136	congruent	1.0	82.0	stroop	82	0.629	green	green	stim	congruent	s627	False
68.998	1.5	2.0	congruent	1.0	71.0	stroop	71	0.965	blue	blue	stim	congruent	s627	False
71.0	1.5	2.0	congruent	1.0	89.0	stroop	89	0.389	red	red	stim	congruent	s627	False
73.003	1.5	2.0	incongruent	1.0	82.0	stroop	82	0.682	green	red	stim	incongruent	s627	False
75.006	1.5	2.272	incongruent	1.0	89.0	stroop	89	0.708	red	green	stim	incongruent	s627	False
77.28	1.5	2.0	incongruent	1.0	82.0	stroop	82	0.65	green	blue	stim	incongruent	s627	False
79.281	1.5	2.136	incongruent	1.0	89.0	stroop	89	0.882	red	green	stim	incongruent	s627	False
81.423	1.5	2.408	congruent	1.0	82.0	stroop	82	0.577	green	green	stim	congruent	s627	False
83.834	1.5	2.272	incongruent	1.0	71.0	stroop	71	0.412	blue	red	stim	incongruent	s627	False
86.108	1.5	2.68	congruent	1.0	71.0	stroop	71	0.429	blue	blue	stim	congruent	s627	False
88.79	1.5	2.0	congruent	1.0	89.0	stroop	89	0.479	red	red	stim	congruent	s627	False
90.792	1.5	2.408	congruent	1.0	82.0	stroop	82	0.496	green	green	stim	congruent	s627	False
93.204	1.5	2.136	congruent	1.0	89.0	stroop	89	0.665	red	red	stim	congruent	s627	False
95.342	1.5	2.68	incongruent	0.0	71.0	stroop	82	1.262	blue	red	stim	incongruent	s627	False
98.025	1.5	2.0	incongruent	1.0	89.0	stroop	89	0.876	red	blue	stim	incongruent	s627	False
100.03	1.5	2.136	incongruent	1.0	82.0	stroop	82	0.787	green	red	stim	incongruent	s627	False
102.169	1.5	2.952	congruent	1.0	82.0	stroop	82	0.591	green	green	stim	congruent	s627	False
105.123	1.5	2.0	incongruent	1.0	89.0	stroop	89	0.541	red	blue	stim	incongruent	s627	False
107.127	1.5	2.272	incongruent	1.0	89.0	stroop	89	0.431	red	blue	stim	incongruent	s627	False
109.401	1.5	2.0	incongruent	1.0	82.0	stroop	82	0.655	green	red	stim	incongruent	s627	False
111.406	1.5	2.0	congruent	1.0	89.0	stroop	89	0.465	red	red	stim	congruent	s627	False
113.412	1.5	2.0	congruent	1.0	89.0	stroop	89	0.47	red	red	stim	congruent	s627	False
115.414	1.5	2.0	incongruent	1.0	71.0	stroop	71	0.4	blue	red	stim	incongruent	s627	False
117.415	1.5	2.136	congruent	1.0	89.0	stroop	89	0.478	red	red	stim	congruent	s627	False
119.557	1.5	2.0	congruent	1.0	71.0	stroop	71	0.385	blue	blue	stim	congruent	s627	False
121.561	1.5	2.0	incongruent	1.0	82.0	stroop	82	0.636	green	blue	stim	incongruent	s627	False
123.562	1.5	2.136	congruent	1.0	82.0	stroop	82	0.464	green	green	stim	congruent	s627	False
125.699	1.5	2.0	incongruent	1.0	82.0	stroop	82	0.41	green	blue	stim	incongruent	s627	False
127.703	1.5	2.0	incongruent	0.0	71.0	stroop	89	0.805	blue	red	stim	incongruent	s627	False
129.707	1.5	2.136	incongruent	1.0	71.0	stroop	71	0.97	blue	green	stim	incongruent	s627	False
131.845	1.5	2.136	congruent	1.0	71.0	stroop	71	0.374	blue	blue	stim	congruent	s627	False
133.983	1.5	2.272	congruent	1.0	82.0	stroop	82	0.601	green	green	stim	congruent	s627	False
136.26	1.5	2.68	incongruent	1.0	82.0	stroop	82	0.707	green	red	stim	incongruent	s627	False
138.944	1.5	2.0	congruent	1.0	89.0	stroop	89	0.376	red	red	stim	congruent	s627	False
140.947	1.5	2.0	congruent	1.0	89.0	stroop	89	0.543	red	red	stim	congruent	s627	False
142.95	1.5	2.272	incongruent	1.0	89.0	stroop	89	0.705	red	blue	stim	incongruent	s627	False
145.224	1.5	2.0	incongruent	1.0	71.0	stroop	71	0.759	blue	red	stim	incongruent	s627	False
147.228	1.5	2.0	congruent	1.0	82.0	stroop	82	0.632	green	green	stim	congruent	s627	False
149.233	1.5	2.0	incongruent	1.0	82.0	stroop	82	0.777	green	red	stim	incongruent	s627	False
151.238	1.5	2.0	incongruent	1.0	82.0	stroop	82	0.408	green	red	stim	incongruent	s627	False
153.24	1.5	2.0	incongruent	1.0	71.0	stroop	71	0.582	blue	red	stim	incongruent	s627	False
155.242	1.5	2.0	incongruent	1.0	71.0	stroop	71	0.415	blue	green	stim	incongruent	s627	False
157.246	1.5	2.272	congruent	1.0	71.0	stroop	71	0.392	blue	blue	stim	congruent	s627	False
159.522	1.5	2.0	incongruent	1.0	89.0	stroop	89	0.7	red	blue	stim	incongruent	s627	False
161.527	1.5	2.408	congruent	1.0	89.0	stroop	89	0.444	red	red	stim	congruent	s627	False
163.937	1.5	2.0	congruent	1.0	89.0	stroop	89	0.407	red	red	stim	congruent	s627	False
165.938	1.5	2.136	congruent	1.0	89.0	stroop	89	0.443	red	red	stim	congruent	s627	False
168.075	1.5	2.0	congruent	1.0	71.0	stroop	71	0.74	blue	blue	stim	congruent	s627	False
170.078	1.5	2.0	congruent	1.0	71.0	stroop	71	0.474	blue	blue	stim	congruent	s627	False
172.08	1.5	2.0	incongruent	1.0	89.0	stroop	89	0.883	red	blue	stim	incongruent	s627	False
174.083	1.5	2.272	congruent	1.0	89.0	stroop	89	0.368	red	red	stim	congruent	s627	False
176.358	1.5	2.0	incongruent	1.0	71.0	stroop	71	0.794	blue	green	stim	incongruent	s627	False
178.361	1.5	2.272	incongruent	1.0	89.0	stroop	89	0.598	red	blue	stim	incongruent	s627	False
180.636	1.5	2.272	incongruent	1.0	89.0	stroop	89	0.618	red	green	stim	incongruent	s627	False
182.911	1.5	2.0	incongruent	1.0	82.0	stroop	82	0.444	green	blue	stim	incongruent	s627	False
184.912	1.5	2.68	congruent	1.0	71.0	stroop	71	0.584	blue	blue	stim	congruent	s627	False
187.595	1.5	2.0	incongruent	1.0	82.0	stroop	82	0.708	green	blue	stim	incongruent	s627	False
189.598	1.5	2.272	congruent	1.0	82.0	stroop	82	0.912	green	green	stim	congruent	s627	False
191.873	1.5	2.0	congruent	1.0	89.0	stroop	89	0.524	red	red	stim	congruent	s627	False
193.876	1.5	2.0	congruent	1.0	71.0	stroop	71	0.624	blue	blue	stim	congruent	s627	False
195.879	1.5	2.272	incongruent	1.0	71.0	stroop	71	0.815	blue	green	stim	incongruent	s627	False
198.156	1.5	2.136	congruent	1.0	71.0	stroop	71	0.433	blue	blue	stim	congruent	s627	False
200.296	1.5	2.544	congruent	1.0	82.0	stroop	82	0.917	green	green	stim	congruent	s627	False
202.841	1.5	2.408	incongruent	1.0	71.0	stroop	71	0.916	blue	green	stim	incongruent	s627	False
205.255	1.5	2.0	incongruent	1.0	89.0	stroop	89	0.604	red	blue	stim	incongruent	s627	False
207.26	1.5	2.0	incongruent	1.0	71.0	stroop	71	0.678	blue	green	stim	incongruent	s627	False
