duration	onset	block_duration	movement_onset	planning	condition	exp_stage	experiment_exp_id	key_press	problem_id	response_time	trial_id	trial_type	worker_id	junk
8.438	3.013	8.438	11.451	1	UA_with_intermediate	practice	ward_and_allport	71	0.0	8.438	to_hand	poldrack-single-stim	s628	False
0.1	11.453	0.385	11.838	0	UA_with_intermediate	practice	ward_and_allport	82	0.0	0.385	to_board	poldrack-single-stim	s628	False
0.1	11.84	0.77	12.61	0	UA_with_intermediate	practice	ward_and_allport	71	0.0	0.77	to_hand	poldrack-single-stim	s628	False
0.1	12.61	0.75	13.36	0	UA_with_intermediate	practice	ward_and_allport	89	0.0	0.75	to_board	poldrack-single-stim	s628	False
0.1	13.362	0.752	14.114	0	UA_with_intermediate	practice	ward_and_allport	82	0.0	0.752	to_hand	poldrack-single-stim	s628	False
0.1	14.115	0.478	14.593	0	UA_with_intermediate	practice	ward_and_allport	89	0.0	0.478	to_board	poldrack-single-stim	s628	False
1.0	14.599	2.5	14.598	0	UA_with_intermediate	practice	ward_and_allport	-1	0.0	n/a	feedback	poldrack-single-stim	s628	False
5.3	17.101	5.3	22.401	1	UA_with_intermediate	practice	ward_and_allport	89	1.0	5.3	to_hand	poldrack-single-stim	s628	False
0.1	22.402	0.369	22.771	0	UA_with_intermediate	practice	ward_and_allport	82	1.0	0.369	to_board	poldrack-single-stim	s628	False
0.1	22.772	0.364	23.136	0	UA_with_intermediate	practice	ward_and_allport	71	1.0	0.364	to_hand	poldrack-single-stim	s628	False
0.1	23.138	0.505	23.643	0	UA_with_intermediate	practice	ward_and_allport	89	1.0	0.505	to_board	poldrack-single-stim	s628	False
0.1	23.644	0.699	24.343	0	UA_with_intermediate	practice	ward_and_allport	82	1.0	0.699	to_hand	poldrack-single-stim	s628	False
0.1	24.345	0.312	24.657	0	UA_with_intermediate	practice	ward_and_allport	89	1.0	0.312	to_board	poldrack-single-stim	s628	False
1.0	24.663	2.1	24.662	0	UA_with_intermediate	practice	ward_and_allport	-1	1.0	n/a	feedback	poldrack-single-stim	s628	False
8.095	26.765	8.095	34.86	1	UA_without_intermediate	practice	ward_and_allport	82	2.0	8.095	to_hand	poldrack-single-stim	s628	False
0.1	34.862	0.586	35.448	0	UA_without_intermediate	practice	ward_and_allport	89	2.0	0.586	to_board	poldrack-single-stim	s628	False
0.1	35.45	1.34	36.79	0	UA_without_intermediate	practice	ward_and_allport	71	2.0	1.34	to_hand	poldrack-single-stim	s628	False
0.1	36.791	0.359	37.15	0	UA_without_intermediate	practice	ward_and_allport	89	2.0	0.359	to_board	poldrack-single-stim	s628	False
0.1	37.151	0.616	37.767	0	UA_without_intermediate	practice	ward_and_allport	71	2.0	0.616	to_hand	poldrack-single-stim	s628	False
0.1	37.768	0.296	38.064	0	UA_without_intermediate	practice	ward_and_allport	89	2.0	0.296	to_board	poldrack-single-stim	s628	False
1.0	38.069	2.2	38.068	0	UA_without_intermediate	practice	ward_and_allport	-1	2.0	n/a	feedback	poldrack-single-stim	s628	False
4.292	40.271	4.292	44.563	1	UA_without_intermediate	practice	ward_and_allport	71	3.0	4.292	to_hand	poldrack-single-stim	s628	False
0.1	44.564	0.315	44.879	0	UA_without_intermediate	practice	ward_and_allport	89	3.0	0.315	to_board	poldrack-single-stim	s628	False
0.1	44.881	0.324	45.205	0	UA_without_intermediate	practice	ward_and_allport	82	3.0	0.324	to_hand	poldrack-single-stim	s628	False
0.1	45.205	0.473	45.678	0	UA_without_intermediate	practice	ward_and_allport	89	3.0	0.473	to_board	poldrack-single-stim	s628	False
0.1	45.68	0.771	46.451	0	UA_without_intermediate	practice	ward_and_allport	71	3.0	0.771	to_hand	poldrack-single-stim	s628	False
0.1	46.453	0.207	46.66	0	UA_without_intermediate	practice	ward_and_allport	89	3.0	0.207	to_board	poldrack-single-stim	s628	False
1.0	46.664	2.0	46.663	0	UA_without_intermediate	practice	ward_and_allport	-1	3.0	n/a	feedback	poldrack-single-stim	s628	False
7.403	50.673	7.403	58.076	1	PA_with_intermediate	test	ward_and_allport	89	0.0	7.403	to_hand	poldrack-single-stim	s628	False
0.1	58.078	0.289	58.367	0	PA_with_intermediate	test	ward_and_allport	71	0.0	0.289	to_board	poldrack-single-stim	s628	False
0.1	58.369	0.746	59.115	0	PA_with_intermediate	test	ward_and_allport	89	0.0	0.746	to_hand	poldrack-single-stim	s628	False
0.1	59.115	0.276	59.391	0	PA_with_intermediate	test	ward_and_allport	82	0.0	0.276	to_board	poldrack-single-stim	s628	False
0.1	59.393	0.804	60.197	0	PA_with_intermediate	test	ward_and_allport	71	0.0	0.804	to_hand	poldrack-single-stim	s628	False
0.1	60.198	0.294	60.492	0	PA_with_intermediate	test	ward_and_allport	89	0.0	0.294	to_board	poldrack-single-stim	s628	False
1.0	60.496	2.408	60.495	0	PA_with_intermediate	test	ward_and_allport	-1	0.0	n/a	feedback	poldrack-single-stim	s628	False
6.442	62.907	6.442	69.349	1	PA_without_intermediate	test	ward_and_allport	82	1.0	6.442	to_hand	poldrack-single-stim	s628	False
0.1	69.35	0.301	69.651	0	PA_without_intermediate	test	ward_and_allport	89	1.0	0.301	to_board	poldrack-single-stim	s628	False
0.1	69.653	0.764	70.417	0	PA_without_intermediate	test	ward_and_allport	82	1.0	0.764	to_hand	poldrack-single-stim	s628	False
0.1	70.418	0.98	71.398	0	PA_without_intermediate	test	ward_and_allport	89	1.0	0.98	to_board	poldrack-single-stim	s628	False
0.1	71.4	0.935	72.335	0	PA_without_intermediate	test	ward_and_allport	82	1.0	0.935	to_hand	poldrack-single-stim	s628	False
0.1	72.335	0.443	72.778	0	PA_without_intermediate	test	ward_and_allport	71	1.0	0.443	to_board	poldrack-single-stim	s628	False
1.0	72.785	2.68	72.784	0	PA_without_intermediate	test	ward_and_allport	-1	1.0	n/a	feedback	poldrack-single-stim	s628	False
7.121	75.467	7.121	82.588	1	PA_with_intermediate	test	ward_and_allport	82	2.0	7.121	to_hand	poldrack-single-stim	s628	False
0.1	82.589	0.331	82.92	0	PA_with_intermediate	test	ward_and_allport	89	2.0	0.331	to_board	poldrack-single-stim	s628	False
0.1	82.922	1.377	84.299	0	PA_with_intermediate	test	ward_and_allport	82	2.0	1.377	to_hand	poldrack-single-stim	s628	False
0.1	84.299	0.92	85.219	0	PA_with_intermediate	test	ward_and_allport	71	2.0	0.92	to_board	poldrack-single-stim	s628	False
0.1	85.221	1.205	86.426	0	PA_with_intermediate	test	ward_and_allport	89	2.0	1.205	to_hand	poldrack-single-stim	s628	False
0.1	86.428	0.261	86.689	0	PA_with_intermediate	test	ward_and_allport	82	2.0	0.261	to_board	poldrack-single-stim	s628	False
1.0	86.692	4.72	86.691	0	PA_with_intermediate	test	ward_and_allport	-1	2.0	n/a	feedback	poldrack-single-stim	s628	False
4.817	91.415	4.817	96.232	1	PA_without_intermediate	test	ward_and_allport	89	3.0	4.817	to_hand	poldrack-single-stim	s628	False
0.1	96.233	1.164	97.397	0	PA_without_intermediate	test	ward_and_allport	71	3.0	1.164	to_board	poldrack-single-stim	s628	False
0.1	97.4	1.609	99.009	0	PA_without_intermediate	test	ward_and_allport	89	3.0	1.609	to_hand	poldrack-single-stim	s628	False
0.1	99.009	0.532	99.541	0	PA_without_intermediate	test	ward_and_allport	71	3.0	0.532	to_board	poldrack-single-stim	s628	False
0.1	99.544	0.525	100.069	0	PA_without_intermediate	test	ward_and_allport	89	3.0	0.525	to_hand	poldrack-single-stim	s628	False
0.1	100.071	0.329	100.4	0	PA_without_intermediate	test	ward_and_allport	82	3.0	0.329	to_board	poldrack-single-stim	s628	False
1.0	100.408	3.224	100.407	0	PA_without_intermediate	test	ward_and_allport	-1	3.0	n/a	feedback	poldrack-single-stim	s628	False
4.136	103.635	4.136	107.771	1	PA_without_intermediate	test	ward_and_allport	71	4.0	4.136	to_hand	poldrack-single-stim	s628	False
0.1	107.771	0.39	108.161	0	PA_without_intermediate	test	ward_and_allport	82	4.0	0.39	to_board	poldrack-single-stim	s628	False
0.1	108.163	0.385	108.548	0	PA_without_intermediate	test	ward_and_allport	71	4.0	0.385	to_hand	poldrack-single-stim	s628	False
0.1	108.549	0.383	108.932	0	PA_without_intermediate	test	ward_and_allport	82	4.0	0.383	to_board	poldrack-single-stim	s628	False
0.1	108.936	1.161	110.097	0	PA_without_intermediate	test	ward_and_allport	71	4.0	1.161	to_hand	poldrack-single-stim	s628	False
0.1	110.097	0.33	110.427	0	PA_without_intermediate	test	ward_and_allport	89	4.0	0.33	to_board	poldrack-single-stim	s628	False
1.0	110.432	2.272	110.431	0	PA_without_intermediate	test	ward_and_allport	-1	4.0	n/a	feedback	poldrack-single-stim	s628	False
4.602	112.707	4.602	117.309	1	PA_with_intermediate	test	ward_and_allport	82	5.0	4.602	to_hand	poldrack-single-stim	s628	False
0.1	117.31	0.571	117.881	0	PA_with_intermediate	test	ward_and_allport	89	5.0	0.571	to_board	poldrack-single-stim	s628	False
0.1	117.884	0.981	118.865	0	PA_with_intermediate	test	ward_and_allport	82	5.0	0.981	to_hand	poldrack-single-stim	s628	False
0.1	118.865	0.349	119.214	0	PA_with_intermediate	test	ward_and_allport	71	5.0	0.349	to_board	poldrack-single-stim	s628	False
0.1	119.217	0.95	120.167	0	PA_with_intermediate	test	ward_and_allport	89	5.0	0.95	to_hand	poldrack-single-stim	s628	False
0.1	120.168	0.577	120.745	0	PA_with_intermediate	test	ward_and_allport	82	5.0	0.577	to_board	poldrack-single-stim	s628	False
1.0	120.752	3.632	120.751	0	PA_with_intermediate	test	ward_and_allport	-1	5.0	n/a	feedback	poldrack-single-stim	s628	False
3.836	124.386	3.836	128.222	1	PA_without_intermediate	test	ward_and_allport	71	6.0	3.836	to_hand	poldrack-single-stim	s628	False
0.1	128.223	0.536	128.759	0	PA_without_intermediate	test	ward_and_allport	82	6.0	0.536	to_board	poldrack-single-stim	s628	False
0.1	128.762	0.419	129.181	0	PA_without_intermediate	test	ward_and_allport	71	6.0	0.419	to_hand	poldrack-single-stim	s628	False
0.1	129.183	0.368	129.551	0	PA_without_intermediate	test	ward_and_allport	89	6.0	0.368	to_board	poldrack-single-stim	s628	False
0.1	129.554	0.64	130.194	0	PA_without_intermediate	test	ward_and_allport	71	6.0	0.64	to_hand	poldrack-single-stim	s628	False
0.1	130.195	0.574	130.769	0	PA_without_intermediate	test	ward_and_allport	82	6.0	0.574	to_board	poldrack-single-stim	s628	False
1.0	130.776	2.408	130.775	0	PA_without_intermediate	test	ward_and_allport	-1	6.0	n/a	feedback	poldrack-single-stim	s628	False
5.517	133.188	5.517	138.705	1	PA_without_intermediate	test	ward_and_allport	82	7.0	5.517	to_hand	poldrack-single-stim	s628	False
0.1	138.706	0.311	139.017	0	PA_without_intermediate	test	ward_and_allport	71	7.0	0.311	to_board	poldrack-single-stim	s628	False
0.1	139.019	0.471	139.49	0	PA_without_intermediate	test	ward_and_allport	82	7.0	0.471	to_hand	poldrack-single-stim	s628	False
0.1	139.49	0.48	139.97	0	PA_without_intermediate	test	ward_and_allport	89	7.0	0.48	to_board	poldrack-single-stim	s628	False
0.1	139.973	1.108	141.081	0	PA_without_intermediate	test	ward_and_allport	82	7.0	1.108	to_hand	poldrack-single-stim	s628	False
0.1	141.082	0.348	141.43	0	PA_without_intermediate	test	ward_and_allport	71	7.0	0.348	to_board	poldrack-single-stim	s628	False
1.0	141.436	2.0	141.435	0	PA_without_intermediate	test	ward_and_allport	-1	7.0	n/a	feedback	poldrack-single-stim	s628	False
5.422	143.438	5.422	148.86	1	PA_with_intermediate	test	ward_and_allport	82	8.0	5.422	to_hand	poldrack-single-stim	s628	False
0.1	148.861	0.332	149.193	0	PA_with_intermediate	test	ward_and_allport	71	8.0	0.332	to_board	poldrack-single-stim	s628	False
0.1	149.197	0.389	149.586	0	PA_with_intermediate	test	ward_and_allport	82	8.0	0.389	to_hand	poldrack-single-stim	s628	False
0.1	149.587	0.515	150.102	0	PA_with_intermediate	test	ward_and_allport	89	8.0	0.515	to_board	poldrack-single-stim	s628	False
0.1	150.105	1.086	151.191	0	PA_with_intermediate	test	ward_and_allport	71	8.0	1.086	to_hand	poldrack-single-stim	s628	False
0.1	151.192	0.302	151.494	0	PA_with_intermediate	test	ward_and_allport	82	8.0	0.302	to_board	poldrack-single-stim	s628	False
1.0	151.502	2.0	151.501	0	PA_with_intermediate	test	ward_and_allport	-1	8.0	n/a	feedback	poldrack-single-stim	s628	False
5.901	153.506	5.901	159.407	1	PA_with_intermediate	test	ward_and_allport	71	9.0	5.901	to_hand	poldrack-single-stim	s628	False
0.1	159.408	0.378	159.786	0	PA_with_intermediate	test	ward_and_allport	89	9.0	0.378	to_board	poldrack-single-stim	s628	False
0.1	159.789	0.389	160.178	0	PA_with_intermediate	test	ward_and_allport	71	9.0	0.389	to_hand	poldrack-single-stim	s628	False
0.1	160.179	0.346	160.525	0	PA_with_intermediate	test	ward_and_allport	82	9.0	0.346	to_board	poldrack-single-stim	s628	False
0.1	160.529	0.625	161.154	0	PA_with_intermediate	test	ward_and_allport	89	9.0	0.625	to_hand	poldrack-single-stim	s628	False
0.1	161.154	0.34	161.494	0	PA_with_intermediate	test	ward_and_allport	71	9.0	0.34	to_board	poldrack-single-stim	s628	False
1.0	161.502	2.0	161.501	0	PA_with_intermediate	test	ward_and_allport	-1	9.0	n/a	feedback	poldrack-single-stim	s628	False
4.229	163.507	4.229	167.736	1	PA_with_intermediate	test	ward_and_allport	82	10.0	4.229	to_hand	poldrack-single-stim	s628	False
0.1	167.738	0.488	168.226	0	PA_with_intermediate	test	ward_and_allport	71	10.0	0.488	to_board	poldrack-single-stim	s628	False
0.1	168.229	0.432	168.661	0	PA_with_intermediate	test	ward_and_allport	82	10.0	0.432	to_hand	poldrack-single-stim	s628	False
0.1	168.662	0.409	169.071	0	PA_with_intermediate	test	ward_and_allport	89	10.0	0.409	to_board	poldrack-single-stim	s628	False
0.1	169.074	0.727	169.801	0	PA_with_intermediate	test	ward_and_allport	71	10.0	0.727	to_hand	poldrack-single-stim	s628	False
0.1	169.802	0.276	170.078	0	PA_with_intermediate	test	ward_and_allport	82	10.0	0.276	to_board	poldrack-single-stim	s628	False
1.0	170.085	2.408	170.084	0	PA_with_intermediate	test	ward_and_allport	-1	10.0	n/a	feedback	poldrack-single-stim	s628	False
10.568	172.497	10.568	183.065	1	PA_without_intermediate	test	ward_and_allport	82	11.0	10.568	to_hand	poldrack-single-stim	s628	False
0.1	183.066	1.813	184.879	0	PA_without_intermediate	test	ward_and_allport	89	11.0	1.813	to_board	poldrack-single-stim	s628	False
0.1	184.883	0.896	185.779	0	PA_without_intermediate	test	ward_and_allport	82	11.0	0.896	to_hand	poldrack-single-stim	s628	False
0.1	185.78	0.545	186.325	0	PA_without_intermediate	test	ward_and_allport	89	11.0	0.545	to_board	poldrack-single-stim	s628	False
0.1	186.328	0.926	187.254	0	PA_without_intermediate	test	ward_and_allport	82	11.0	0.926	to_hand	poldrack-single-stim	s628	False
0.1	187.256	0.211	187.467	0	PA_without_intermediate	test	ward_and_allport	71	11.0	0.211	to_board	poldrack-single-stim	s628	False
1.0	187.475	2.816	187.474	0	PA_without_intermediate	test	ward_and_allport	-1	11.0	n/a	feedback	poldrack-single-stim	s628	False
8.061	190.295	8.061	198.356	1	PA_with_intermediate	test	ward_and_allport	71	12.0	8.061	to_hand	poldrack-single-stim	s628	False
0.1	198.357	0.394	198.751	0	PA_with_intermediate	test	ward_and_allport	82	12.0	0.394	to_board	poldrack-single-stim	s628	False
0.1	198.754	0.49	199.244	0	PA_with_intermediate	test	ward_and_allport	71	12.0	0.49	to_hand	poldrack-single-stim	s628	False
0.1	199.246	0.282	199.528	0	PA_with_intermediate	test	ward_and_allport	89	12.0	0.282	to_board	poldrack-single-stim	s628	False
0.1	199.531	0.773	200.304	0	PA_with_intermediate	test	ward_and_allport	82	12.0	0.773	to_hand	poldrack-single-stim	s628	False
0.1	200.306	0.674	200.98	0	PA_with_intermediate	test	ward_and_allport	71	12.0	0.674	to_board	poldrack-single-stim	s628	False
1.0	200.985	4.176	200.984	0	PA_with_intermediate	test	ward_and_allport	-1	12.0	n/a	feedback	poldrack-single-stim	s628	False
4.195	205.165	4.195	209.36	1	PA_with_intermediate	test	ward_and_allport	71	13.0	4.195	to_hand	poldrack-single-stim	s628	False
0.1	209.362	0.276	209.638	0	PA_with_intermediate	test	ward_and_allport	82	13.0	0.276	to_board	poldrack-single-stim	s628	False
0.1	209.641	0.348	209.989	0	PA_with_intermediate	test	ward_and_allport	71	13.0	0.348	to_hand	poldrack-single-stim	s628	False
0.1	209.989	0.437	210.426	0	PA_with_intermediate	test	ward_and_allport	89	13.0	0.437	to_board	poldrack-single-stim	s628	False
0.1	210.43	0.768	211.198	0	PA_with_intermediate	test	ward_and_allport	82	13.0	0.768	to_hand	poldrack-single-stim	s628	False
0.1	211.199	0.311	211.51	0	PA_with_intermediate	test	ward_and_allport	71	13.0	0.311	to_board	poldrack-single-stim	s628	False
1.0	211.519	3.36	211.518	0	PA_with_intermediate	test	ward_and_allport	-1	13.0	n/a	feedback	poldrack-single-stim	s628	False
5.6	214.882	5.6	220.482	1	PA_with_intermediate	test	ward_and_allport	89	14.0	5.6	to_hand	poldrack-single-stim	s628	False
0.1	220.483	0.317	220.8	0	PA_with_intermediate	test	ward_and_allport	82	14.0	0.317	to_board	poldrack-single-stim	s628	False
0.1	220.804	0.867	221.671	0	PA_with_intermediate	test	ward_and_allport	89	14.0	0.867	to_hand	poldrack-single-stim	s628	False
0.1	221.672	0.351	222.023	0	PA_with_intermediate	test	ward_and_allport	71	14.0	0.351	to_board	poldrack-single-stim	s628	False
0.1	222.027	0.736	222.763	0	PA_with_intermediate	test	ward_and_allport	82	14.0	0.736	to_hand	poldrack-single-stim	s628	False
0.1	222.765	0.201	222.966	0	PA_with_intermediate	test	ward_and_allport	71	14.0	0.201	to_board	poldrack-single-stim	s628	False
1.0	222.975	2.0	222.974	0	PA_with_intermediate	test	ward_and_allport	-1	14.0	n/a	feedback	poldrack-single-stim	s628	False
3.557	229.982	3.557	233.539	1	PA_without_intermediate	test	ward_and_allport	89	15.0	3.557	to_hand	poldrack-single-stim	s628	False
0.1	233.54	0.259	233.799	0	PA_without_intermediate	test	ward_and_allport	82	15.0	0.259	to_board	poldrack-single-stim	s628	False
0.1	233.805	0.414	234.219	0	PA_without_intermediate	test	ward_and_allport	89	15.0	0.414	to_hand	poldrack-single-stim	s628	False
0.1	234.219	0.704	234.923	0	PA_without_intermediate	test	ward_and_allport	82	15.0	0.704	to_board	poldrack-single-stim	s628	False
0.1	234.926	0.882	235.808	0	PA_without_intermediate	test	ward_and_allport	89	15.0	0.882	to_hand	poldrack-single-stim	s628	False
0.1	235.809	0.298	236.107	0	PA_without_intermediate	test	ward_and_allport	71	15.0	0.298	to_board	poldrack-single-stim	s628	False
1.0	236.114	2.408	236.113	0	PA_without_intermediate	test	ward_and_allport	-1	15.0	n/a	feedback	poldrack-single-stim	s628	False
4.896	238.526	4.896	243.422	1	PA_with_intermediate	test	ward_and_allport	71	16.0	4.896	to_hand	poldrack-single-stim	s628	False
0.1	243.424	0.458	243.882	0	PA_with_intermediate	test	ward_and_allport	89	16.0	0.458	to_board	poldrack-single-stim	s628	False
0.1	243.886	0.387	244.273	0	PA_with_intermediate	test	ward_and_allport	71	16.0	0.387	to_hand	poldrack-single-stim	s628	False
0.1	244.275	0.359	244.634	0	PA_with_intermediate	test	ward_and_allport	82	16.0	0.359	to_board	poldrack-single-stim	s628	False
0.1	244.638	0.722	245.36	0	PA_with_intermediate	test	ward_and_allport	89	16.0	0.722	to_hand	poldrack-single-stim	s628	False
0.1	245.361	0.289	245.65	0	PA_with_intermediate	test	ward_and_allport	82	16.0	0.289	to_board	poldrack-single-stim	s628	False
1.0	245.659	2.816	245.658	0	PA_with_intermediate	test	ward_and_allport	-1	16.0	n/a	feedback	poldrack-single-stim	s628	False
3.649	248.479	3.649	252.128	1	PA_without_intermediate	test	ward_and_allport	82	17.0	3.649	to_hand	poldrack-single-stim	s628	False
0.1	252.13	0.31	252.44	0	PA_without_intermediate	test	ward_and_allport	89	17.0	0.31	to_board	poldrack-single-stim	s628	False
0.1	252.445	0.956	253.401	0	PA_without_intermediate	test	ward_and_allport	82	17.0	0.956	to_hand	poldrack-single-stim	s628	False
0.1	253.402	0.431	253.833	0	PA_without_intermediate	test	ward_and_allport	71	17.0	0.431	to_board	poldrack-single-stim	s628	False
0.1	253.838	1.008	254.846	0	PA_without_intermediate	test	ward_and_allport	82	17.0	1.008	to_hand	poldrack-single-stim	s628	False
0.1	254.847	0.426	255.273	0	PA_without_intermediate	test	ward_and_allport	89	17.0	0.426	to_board	poldrack-single-stim	s628	False
1.0	255.279	3.088	255.278	0	PA_without_intermediate	test	ward_and_allport	-1	17.0	n/a	feedback	poldrack-single-stim	s628	False
2.894	258.373	2.894	261.267	1	PA_without_intermediate	test	ward_and_allport	71	18.0	2.894	to_hand	poldrack-single-stim	s628	False
0.1	261.269	0.313	261.582	0	PA_without_intermediate	test	ward_and_allport	89	18.0	0.313	to_board	poldrack-single-stim	s628	False
0.1	261.588	0.512	262.1	0	PA_without_intermediate	test	ward_and_allport	71	18.0	0.512	to_hand	poldrack-single-stim	s628	False
0.1	262.1	0.549	262.649	0	PA_without_intermediate	test	ward_and_allport	82	18.0	0.549	to_board	poldrack-single-stim	s628	False
0.1	262.655	0.412	263.067	0	PA_without_intermediate	test	ward_and_allport	71	18.0	0.412	to_hand	poldrack-single-stim	s628	False
0.1	263.068	0.57	263.638	0	PA_without_intermediate	test	ward_and_allport	89	18.0	0.57	to_board	poldrack-single-stim	s628	False
1.0	263.646	2.136	263.645	0	PA_without_intermediate	test	ward_and_allport	-1	18.0	n/a	feedback	poldrack-single-stim	s628	False
3.598	265.787	3.598	269.385	1	PA_without_intermediate	test	ward_and_allport	71	19.0	3.598	to_hand	poldrack-single-stim	s628	False
0.1	269.386	0.298	269.684	0	PA_without_intermediate	test	ward_and_allport	89	19.0	0.298	to_board	poldrack-single-stim	s628	False
0.1	269.69	0.28	269.97	0	PA_without_intermediate	test	ward_and_allport	71	19.0	0.28	to_hand	poldrack-single-stim	s628	False
0.1	269.971	0.271	270.242	0	PA_without_intermediate	test	ward_and_allport	82	19.0	0.271	to_board	poldrack-single-stim	s628	False
0.1	270.248	0.301	270.549	0	PA_without_intermediate	test	ward_and_allport	71	19.0	0.301	to_hand	poldrack-single-stim	s628	False
0.1	270.549	0.312	270.861	0	PA_without_intermediate	test	ward_and_allport	89	19.0	0.312	to_board	poldrack-single-stim	s628	False
1.0	270.871	7.168	270.87	0	PA_without_intermediate	test	ward_and_allport	-1	19.0	n/a	feedback	poldrack-single-stim	s628	False
3.262	278.044	3.262	281.306	1	PA_without_intermediate	test	ward_and_allport	89	20.0	3.262	to_hand	poldrack-single-stim	s628	False
0.1	281.307	0.31	281.617	0	PA_without_intermediate	test	ward_and_allport	82	20.0	0.31	to_board	poldrack-single-stim	s628	False
0.1	281.622	0.364	281.986	0	PA_without_intermediate	test	ward_and_allport	89	20.0	0.364	to_hand	poldrack-single-stim	s628	False
0.1	281.988	0.25	282.238	0	PA_without_intermediate	test	ward_and_allport	82	20.0	0.25	to_board	poldrack-single-stim	s628	False
0.1	282.244	0.361	282.605	0	PA_without_intermediate	test	ward_and_allport	89	20.0	0.361	to_hand	poldrack-single-stim	s628	False
0.1	282.605	0.256	282.861	0	PA_without_intermediate	test	ward_and_allport	71	20.0	0.256	to_board	poldrack-single-stim	s628	False
1.0	282.871	2.816	282.87	0	PA_without_intermediate	test	ward_and_allport	-1	20.0	n/a	feedback	poldrack-single-stim	s628	False
3.439	285.693	3.439	289.132	1	PA_with_intermediate	test	ward_and_allport	71	21.0	3.439	to_hand	poldrack-single-stim	s628	False
0.1	289.132	0.282	289.414	0	PA_with_intermediate	test	ward_and_allport	89	21.0	0.282	to_board	poldrack-single-stim	s628	False
0.1	289.419	0.314	289.733	0	PA_with_intermediate	test	ward_and_allport	71	21.0	0.314	to_hand	poldrack-single-stim	s628	False
0.1	289.735	0.433	290.168	0	PA_with_intermediate	test	ward_and_allport	82	21.0	0.433	to_board	poldrack-single-stim	s628	False
0.1	290.174	0.34	290.514	0	PA_with_intermediate	test	ward_and_allport	89	21.0	0.34	to_hand	poldrack-single-stim	s628	False
0.1	290.515	0.317	290.832	0	PA_with_intermediate	test	ward_and_allport	82	21.0	0.317	to_board	poldrack-single-stim	s628	False
1.0	290.84	2.952	290.839	0	PA_with_intermediate	test	ward_and_allport	-1	21.0	n/a	feedback	poldrack-single-stim	s628	False
3.074	293.798	3.074	296.872	1	PA_with_intermediate	test	ward_and_allport	89	22.0	3.074	to_hand	poldrack-single-stim	s628	False
0.1	296.874	0.282	297.156	0	PA_with_intermediate	test	ward_and_allport	71	22.0	0.282	to_board	poldrack-single-stim	s628	False
0.1	297.161	0.311	297.472	0	PA_with_intermediate	test	ward_and_allport	89	22.0	0.311	to_hand	poldrack-single-stim	s628	False
0.1	297.473	0.311	297.784	0	PA_with_intermediate	test	ward_and_allport	82	22.0	0.311	to_board	poldrack-single-stim	s628	False
0.1	297.789	0.363	298.152	0	PA_with_intermediate	test	ward_and_allport	71	22.0	0.363	to_hand	poldrack-single-stim	s628	False
0.1	298.154	0.284	298.438	0	PA_with_intermediate	test	ward_and_allport	82	22.0	0.284	to_board	poldrack-single-stim	s628	False
1.0	298.445	2.136	298.444	0	PA_with_intermediate	test	ward_and_allport	-1	22.0	n/a	feedback	poldrack-single-stim	s628	False
8.201	300.587	8.201	308.788	1	PA_without_intermediate	test	ward_and_allport	82	23.0	8.201	to_hand	poldrack-single-stim	s628	False
0.1	308.789	0.762	309.551	0	PA_without_intermediate	test	ward_and_allport	71	23.0	0.762	to_board	poldrack-single-stim	s628	False
0.1	309.557	1.088	310.645	0	PA_without_intermediate	test	ward_and_allport	82	23.0	1.088	to_hand	poldrack-single-stim	s628	False
0.1	310.645	0.319	310.964	0	PA_without_intermediate	test	ward_and_allport	71	23.0	0.319	to_board	poldrack-single-stim	s628	False
0.1	310.969	0.424	311.393	0	PA_without_intermediate	test	ward_and_allport	82	23.0	0.424	to_hand	poldrack-single-stim	s628	False
0.1	311.394	0.349	311.743	0	PA_without_intermediate	test	ward_and_allport	89	23.0	0.349	to_board	poldrack-single-stim	s628	False
1.0	311.75	2.68	311.749	0	PA_without_intermediate	test	ward_and_allport	-1	23.0	n/a	feedback	poldrack-single-stim	s628	False
4.859	314.435	4.859	319.294	1	PA_without_intermediate	test	ward_and_allport	82	24.0	4.859	to_hand	poldrack-single-stim	s628	False
0.1	319.295	0.34	319.635	0	PA_without_intermediate	test	ward_and_allport	89	24.0	0.34	to_board	poldrack-single-stim	s628	False
0.1	319.641	0.386	320.027	0	PA_without_intermediate	test	ward_and_allport	82	24.0	0.386	to_hand	poldrack-single-stim	s628	False
0.1	320.029	0.802	320.831	0	PA_without_intermediate	test	ward_and_allport	71	24.0	0.802	to_board	poldrack-single-stim	s628	False
0.1	320.837	0.765	321.602	0	PA_without_intermediate	test	ward_and_allport	82	24.0	0.765	to_hand	poldrack-single-stim	s628	False
0.1	321.603	0.273	321.876	0	PA_without_intermediate	test	ward_and_allport	89	24.0	0.273	to_board	poldrack-single-stim	s628	False
1.0	321.886	3.088	321.885	0	PA_without_intermediate	test	ward_and_allport	-1	24.0	n/a	feedback	poldrack-single-stim	s628	False
7.882	324.981	7.882	332.863	1	PA_with_intermediate	test	ward_and_allport	82	25.0	7.882	to_hand	poldrack-single-stim	s628	False
0.1	332.864	0.402	333.266	0	PA_with_intermediate	test	ward_and_allport	71	25.0	0.402	to_board	poldrack-single-stim	s628	False
0.1	333.273	0.375	333.648	0	PA_with_intermediate	test	ward_and_allport	82	25.0	0.375	to_hand	poldrack-single-stim	s628	False
0.1	333.648	0.271	333.919	0	PA_with_intermediate	test	ward_and_allport	89	25.0	0.271	to_board	poldrack-single-stim	s628	False
0.1	333.926	0.314	334.24	0	PA_with_intermediate	test	ward_and_allport	71	25.0	0.314	to_hand	poldrack-single-stim	s628	False
0.1	334.24	0.332	334.572	0	PA_with_intermediate	test	ward_and_allport	89	25.0	0.332	to_board	poldrack-single-stim	s628	False
1.0	334.58	2.0	334.579	0	PA_with_intermediate	test	ward_and_allport	-1	25.0	n/a	feedback	poldrack-single-stim	s628	False
4.968	336.586	4.968	341.554	1	PA_without_intermediate	test	ward_and_allport	82	26.0	4.968	to_hand	poldrack-single-stim	s628	False
0.1	341.556	0.311	341.867	0	PA_without_intermediate	test	ward_and_allport	71	26.0	0.311	to_board	poldrack-single-stim	s628	False
0.1	341.874	0.345	342.219	0	PA_without_intermediate	test	ward_and_allport	82	26.0	0.345	to_hand	poldrack-single-stim	s628	False
0.1	342.22	0.349	342.569	0	PA_without_intermediate	test	ward_and_allport	89	26.0	0.349	to_board	poldrack-single-stim	s628	False
0.1	342.577	0.519	343.096	0	PA_without_intermediate	test	ward_and_allport	82	26.0	0.519	to_hand	poldrack-single-stim	s628	False
0.1	343.097	0.359	343.456	0	PA_without_intermediate	test	ward_and_allport	71	26.0	0.359	to_board	poldrack-single-stim	s628	False
1.0	343.463	2.0	343.462	0	PA_without_intermediate	test	ward_and_allport	-1	26.0	n/a	feedback	poldrack-single-stim	s628	False
3.324	345.471	3.324	348.795	1	PA_without_intermediate	test	ward_and_allport	89	27.0	3.324	to_hand	poldrack-single-stim	s628	False
0.1	348.795	0.383	349.178	0	PA_without_intermediate	test	ward_and_allport	71	27.0	0.383	to_board	poldrack-single-stim	s628	False
0.1	349.185	0.396	349.581	0	PA_without_intermediate	test	ward_and_allport	89	27.0	0.396	to_hand	poldrack-single-stim	s628	False
0.1	349.581	0.419	350.0	0	PA_without_intermediate	test	ward_and_allport	71	27.0	0.419	to_board	poldrack-single-stim	s628	False
0.1	350.008	0.366	350.374	0	PA_without_intermediate	test	ward_and_allport	89	27.0	0.366	to_hand	poldrack-single-stim	s628	False
0.1	350.374	0.28	350.654	0	PA_without_intermediate	test	ward_and_allport	82	27.0	0.28	to_board	poldrack-single-stim	s628	False
1.0	350.666	2.0	350.665	0	PA_without_intermediate	test	ward_and_allport	-1	27.0	n/a	feedback	poldrack-single-stim	s628	False
5.232	352.672	5.232	357.904	1	PA_with_intermediate	test	ward_and_allport	71	28.0	5.232	to_hand	poldrack-single-stim	s628	False
0.1	357.905	0.363	358.268	0	PA_with_intermediate	test	ward_and_allport	82	28.0	0.363	to_board	poldrack-single-stim	s628	False
0.1	358.276	0.348	358.624	0	PA_with_intermediate	test	ward_and_allport	71	28.0	0.348	to_hand	poldrack-single-stim	s628	False
0.1	358.625	0.266	358.891	0	PA_with_intermediate	test	ward_and_allport	89	28.0	0.266	to_board	poldrack-single-stim	s628	False
0.1	358.899	0.32	359.219	0	PA_with_intermediate	test	ward_and_allport	82	28.0	0.32	to_hand	poldrack-single-stim	s628	False
0.1	359.22	0.303	359.523	0	PA_with_intermediate	test	ward_and_allport	89	28.0	0.303	to_board	poldrack-single-stim	s628	False
1.0	359.536	2.544	359.535	0	PA_with_intermediate	test	ward_and_allport	-1	28.0	n/a	feedback	poldrack-single-stim	s628	False
3.0	362.084	3.0	365.084	1	PA_without_intermediate	test	ward_and_allport	89	29.0	3.0	to_hand	poldrack-single-stim	s628	False
0.1	365.086	0.366	365.452	0	PA_without_intermediate	test	ward_and_allport	71	29.0	0.366	to_board	poldrack-single-stim	s628	False
0.1	365.457	0.549	366.006	0	PA_without_intermediate	test	ward_and_allport	89	29.0	0.549	to_hand	poldrack-single-stim	s628	False
0.1	366.008	0.286	366.294	0	PA_without_intermediate	test	ward_and_allport	82	29.0	0.286	to_board	poldrack-single-stim	s628	False
0.1	366.301	0.395	366.696	0	PA_without_intermediate	test	ward_and_allport	89	29.0	0.395	to_hand	poldrack-single-stim	s628	False
0.1	366.697	0.349	367.046	0	PA_without_intermediate	test	ward_and_allport	71	29.0	0.349	to_board	poldrack-single-stim	s628	False
1.0	367.059	2.272	367.058	0	PA_without_intermediate	test	ward_and_allport	-1	29.0	n/a	feedback	poldrack-single-stim	s628	False
5.477	374.342	5.477	379.819	1	PA_with_intermediate	test	ward_and_allport	89	30.0	5.477	to_hand	poldrack-single-stim	s628	False
0.1	379.82	0.372	380.192	0	PA_with_intermediate	test	ward_and_allport	71	30.0	0.372	to_board	poldrack-single-stim	s628	False
0.1	380.2	0.329	380.529	0	PA_with_intermediate	test	ward_and_allport	89	30.0	0.329	to_hand	poldrack-single-stim	s628	False
0.1	380.53	0.284	380.814	0	PA_with_intermediate	test	ward_and_allport	82	30.0	0.284	to_board	poldrack-single-stim	s628	False
0.1	380.821	0.361	381.182	0	PA_with_intermediate	test	ward_and_allport	71	30.0	0.361	to_hand	poldrack-single-stim	s628	False
0.1	381.182	0.286	381.468	0	PA_with_intermediate	test	ward_and_allport	89	30.0	0.286	to_board	poldrack-single-stim	s628	False
1.0	381.479	4.04	381.478	0	PA_with_intermediate	test	ward_and_allport	-1	30.0	n/a	feedback	poldrack-single-stim	s628	False
3.322	385.527	3.322	388.849	1	PA_with_intermediate	test	ward_and_allport	71	31.0	3.322	to_hand	poldrack-single-stim	s628	False
0.1	388.849	0.274	389.123	0	PA_with_intermediate	test	ward_and_allport	89	31.0	0.274	to_board	poldrack-single-stim	s628	False
0.1	389.129	0.279	389.408	0	PA_with_intermediate	test	ward_and_allport	71	31.0	0.279	to_hand	poldrack-single-stim	s628	False
0.1	389.409	0.327	389.736	0	PA_with_intermediate	test	ward_and_allport	82	31.0	0.327	to_board	poldrack-single-stim	s628	False
0.1	389.742	0.537	390.279	0	PA_with_intermediate	test	ward_and_allport	89	31.0	0.537	to_hand	poldrack-single-stim	s628	False
0.1	390.28	0.24	390.52	0	PA_with_intermediate	test	ward_and_allport	71	31.0	0.24	to_board	poldrack-single-stim	s628	False
1.0	390.529	2.272	390.528	0	PA_with_intermediate	test	ward_and_allport	-1	31.0	n/a	feedback	poldrack-single-stim	s628	False
3.803	392.807	3.803	396.61	1	PA_with_intermediate	test	ward_and_allport	89	32.0	3.803	to_hand	poldrack-single-stim	s628	False
0.1	396.611	0.247	396.858	0	PA_with_intermediate	test	ward_and_allport	71	32.0	0.247	to_board	poldrack-single-stim	s628	False
0.1	396.863	0.255	397.118	0	PA_with_intermediate	test	ward_and_allport	89	32.0	0.255	to_hand	poldrack-single-stim	s628	False
0.1	397.12	0.239	397.359	0	PA_with_intermediate	test	ward_and_allport	82	32.0	0.239	to_board	poldrack-single-stim	s628	False
0.1	397.366	0.401	397.767	0	PA_with_intermediate	test	ward_and_allport	71	32.0	0.401	to_hand	poldrack-single-stim	s628	False
0.1	397.769	0.206	397.975	0	PA_with_intermediate	test	ward_and_allport	82	32.0	0.206	to_board	poldrack-single-stim	s628	False
1.0	397.983	2.136	397.982	0	PA_with_intermediate	test	ward_and_allport	-1	32.0	n/a	feedback	poldrack-single-stim	s628	False
5.219	400.124	5.219	405.343	1	PA_with_intermediate	test	ward_and_allport	82	33.0	5.219	to_hand	poldrack-single-stim	s628	False
0.1	405.344	0.578	405.922	0	PA_with_intermediate	test	ward_and_allport	71	33.0	0.578	to_board	poldrack-single-stim	s628	False
0.1	405.93	0.259	406.189	0	PA_with_intermediate	test	ward_and_allport	82	33.0	0.259	to_hand	poldrack-single-stim	s628	False
0.1	406.189	0.274	406.463	0	PA_with_intermediate	test	ward_and_allport	89	33.0	0.274	to_board	poldrack-single-stim	s628	False
0.1	406.471	0.289	406.76	0	PA_with_intermediate	test	ward_and_allport	71	33.0	0.289	to_hand	poldrack-single-stim	s628	False
0.1	406.76	0.235	406.995	0	PA_with_intermediate	test	ward_and_allport	89	33.0	0.235	to_board	poldrack-single-stim	s628	False
1.0	407.008	2.0	407.007	0	PA_with_intermediate	test	ward_and_allport	-1	33.0	n/a	feedback	poldrack-single-stim	s628	False
4.213	409.015	4.213	413.228	1	PA_with_intermediate	test	ward_and_allport	89	34.0	4.213	to_hand	poldrack-single-stim	s628	False
0.1	413.23	0.226	413.456	0	PA_with_intermediate	test	ward_and_allport	82	34.0	0.226	to_board	poldrack-single-stim	s628	False
0.1	413.462	0.252	413.714	0	PA_with_intermediate	test	ward_and_allport	89	34.0	0.252	to_hand	poldrack-single-stim	s628	False
0.1	413.715	0.242	413.957	0	PA_with_intermediate	test	ward_and_allport	71	34.0	0.242	to_board	poldrack-single-stim	s628	False
0.1	413.966	0.24	414.206	0	PA_with_intermediate	test	ward_and_allport	82	34.0	0.24	to_hand	poldrack-single-stim	s628	False
0.1	414.207	0.244	414.451	0	PA_with_intermediate	test	ward_and_allport	89	34.0	0.244	to_board	poldrack-single-stim	s628	False
1.0	414.461	2.0	414.46	0	PA_with_intermediate	test	ward_and_allport	-1	34.0	n/a	feedback	poldrack-single-stim	s628	False
4.189	416.467	4.189	420.656	1	PA_without_intermediate	test	ward_and_allport	71	35.0	4.189	to_hand	poldrack-single-stim	s628	False
0.1	420.656	0.237	420.893	0	PA_without_intermediate	test	ward_and_allport	89	35.0	0.237	to_board	poldrack-single-stim	s628	False
0.1	420.899	0.31	421.209	0	PA_without_intermediate	test	ward_and_allport	71	35.0	0.31	to_hand	poldrack-single-stim	s628	False
0.1	421.21	0.357	421.567	0	PA_without_intermediate	test	ward_and_allport	89	35.0	0.357	to_board	poldrack-single-stim	s628	False
0.1	421.574	0.594	422.168	0	PA_without_intermediate	test	ward_and_allport	71	35.0	0.594	to_hand	poldrack-single-stim	s628	False
0.1	422.17	0.16	422.33	0	PA_without_intermediate	test	ward_and_allport	82	35.0	0.16	to_board	poldrack-single-stim	s628	False
1.0	422.341	2.408	422.34	0	PA_without_intermediate	test	ward_and_allport	-1	35.0	n/a	feedback	poldrack-single-stim	s628	False
4.302	424.757	4.302	429.059	1	PA_with_intermediate	test	ward_and_allport	82	36.0	4.302	to_hand	poldrack-single-stim	s628	False
0.1	429.06	0.283	429.343	0	PA_with_intermediate	test	ward_and_allport	89	36.0	0.283	to_board	poldrack-single-stim	s628	False
0.1	429.348	0.341	429.689	0	PA_with_intermediate	test	ward_and_allport	82	36.0	0.341	to_hand	poldrack-single-stim	s628	False
0.1	429.69	0.348	430.038	0	PA_with_intermediate	test	ward_and_allport	71	36.0	0.348	to_board	poldrack-single-stim	s628	False
0.1	430.045	0.685	430.73	0	PA_with_intermediate	test	ward_and_allport	89	36.0	0.685	to_hand	poldrack-single-stim	s628	False
0.1	430.732	0.263	430.995	0	PA_with_intermediate	test	ward_and_allport	71	36.0	0.263	to_board	poldrack-single-stim	s628	False
1.0	431.008	3.768	431.007	0	PA_with_intermediate	test	ward_and_allport	-1	36.0	n/a	feedback	poldrack-single-stim	s628	False
4.113	434.783	4.113	438.896	1	PA_with_intermediate	test	ward_and_allport	82	37.0	4.113	to_hand	poldrack-single-stim	s628	False
0.1	438.898	0.497	439.395	0	PA_with_intermediate	test	ward_and_allport	89	37.0	0.497	to_board	poldrack-single-stim	s628	False
0.1	439.401	0.463	439.864	0	PA_with_intermediate	test	ward_and_allport	82	37.0	0.463	to_hand	poldrack-single-stim	s628	False
0.1	439.866	0.791	440.657	0	PA_with_intermediate	test	ward_and_allport	71	37.0	0.791	to_board	poldrack-single-stim	s628	False
0.1	440.666	0.305	440.971	0	PA_with_intermediate	test	ward_and_allport	89	37.0	0.305	to_hand	poldrack-single-stim	s628	False
0.1	440.972	0.223	441.195	0	PA_with_intermediate	test	ward_and_allport	71	37.0	0.223	to_board	poldrack-single-stim	s628	False
1.0	441.209	2.68	441.208	0	PA_with_intermediate	test	ward_and_allport	-1	37.0	n/a	feedback	poldrack-single-stim	s628	False
6.089	443.899	6.089	449.988	1	PA_without_intermediate	test	ward_and_allport	89	38.0	6.089	to_hand	poldrack-single-stim	s628	False
0.1	449.989	0.272	450.261	0	PA_without_intermediate	test	ward_and_allport	71	38.0	0.272	to_board	poldrack-single-stim	s628	False
0.1	450.268	0.397	450.665	0	PA_without_intermediate	test	ward_and_allport	89	38.0	0.397	to_hand	poldrack-single-stim	s628	False
0.1	450.666	0.282	450.948	0	PA_without_intermediate	test	ward_and_allport	82	38.0	0.282	to_board	poldrack-single-stim	s628	False
0.1	450.957	0.291	451.248	0	PA_without_intermediate	test	ward_and_allport	89	38.0	0.291	to_hand	poldrack-single-stim	s628	False
0.1	451.248	0.334	451.582	0	PA_without_intermediate	test	ward_and_allport	71	38.0	0.334	to_board	poldrack-single-stim	s628	False
1.0	451.596	3.224	451.595	0	PA_without_intermediate	test	ward_and_allport	-1	38.0	n/a	feedback	poldrack-single-stim	s628	False
3.284	454.827	3.284	458.111	1	PA_without_intermediate	test	ward_and_allport	71	39.0	3.284	to_hand	poldrack-single-stim	s628	False
0.1	458.113	0.276	458.389	0	PA_without_intermediate	test	ward_and_allport	82	39.0	0.276	to_board	poldrack-single-stim	s628	False
0.1	458.398	0.269	458.667	0	PA_without_intermediate	test	ward_and_allport	71	39.0	0.269	to_hand	poldrack-single-stim	s628	False
0.1	458.668	0.308	458.976	0	PA_without_intermediate	test	ward_and_allport	89	39.0	0.308	to_board	poldrack-single-stim	s628	False
0.1	458.986	0.397	459.383	0	PA_without_intermediate	test	ward_and_allport	71	39.0	0.397	to_hand	poldrack-single-stim	s628	False
0.1	459.384	0.328	459.712	0	PA_without_intermediate	test	ward_and_allport	82	39.0	0.328	to_board	poldrack-single-stim	s628	False
1.0	459.721	3.36	459.72	0	PA_without_intermediate	test	ward_and_allport	-1	39.0	n/a	feedback	poldrack-single-stim	s628	False
3.342	463.089	3.342	466.431	1	PA_without_intermediate	test	ward_and_allport	89	40.0	3.342	to_hand	poldrack-single-stim	s628	False
0.1	466.432	0.266	466.698	0	PA_without_intermediate	test	ward_and_allport	82	40.0	0.266	to_board	poldrack-single-stim	s628	False
0.1	466.705	0.254	466.959	0	PA_without_intermediate	test	ward_and_allport	89	40.0	0.254	to_hand	poldrack-single-stim	s628	False
0.1	466.96	0.271	467.231	0	PA_without_intermediate	test	ward_and_allport	71	40.0	0.271	to_board	poldrack-single-stim	s628	False
0.1	467.241	0.317	467.558	0	PA_without_intermediate	test	ward_and_allport	89	40.0	0.317	to_hand	poldrack-single-stim	s628	False
0.1	467.559	0.243	467.802	0	PA_without_intermediate	test	ward_and_allport	82	40.0	0.243	to_board	poldrack-single-stim	s628	False
1.0	467.812	2.0	467.811	0	PA_without_intermediate	test	ward_and_allport	-1	40.0	n/a	feedback	poldrack-single-stim	s628	False
2.848	469.821	2.848	472.669	1	PA_without_intermediate	test	ward_and_allport	89	41.0	2.848	to_hand	poldrack-single-stim	s628	False
0.1	472.67	0.257	472.927	0	PA_without_intermediate	test	ward_and_allport	82	41.0	0.257	to_board	poldrack-single-stim	s628	False
0.1	472.934	0.271	473.205	0	PA_without_intermediate	test	ward_and_allport	89	41.0	0.271	to_hand	poldrack-single-stim	s628	False
0.1	473.206	0.274	473.48	0	PA_without_intermediate	test	ward_and_allport	71	41.0	0.274	to_board	poldrack-single-stim	s628	False
0.1	473.489	0.261	473.75	0	PA_without_intermediate	test	ward_and_allport	89	41.0	0.261	to_hand	poldrack-single-stim	s628	False
0.1	473.751	0.206	473.957	0	PA_without_intermediate	test	ward_and_allport	82	41.0	0.206	to_board	poldrack-single-stim	s628	False
1.0	473.97	2.408	473.969	0	PA_without_intermediate	test	ward_and_allport	-1	41.0	n/a	feedback	poldrack-single-stim	s628	False
6.789	476.384	6.789	483.173	1	PA_with_intermediate	test	ward_and_allport	89	42.0	6.789	to_hand	poldrack-single-stim	s628	False
0.1	483.174	0.363	483.537	0	PA_with_intermediate	test	ward_and_allport	82	42.0	0.363	to_board	poldrack-single-stim	s628	False
0.1	483.545	0.494	484.039	0	PA_with_intermediate	test	ward_and_allport	89	42.0	0.494	to_hand	poldrack-single-stim	s628	False
0.1	484.04	0.272	484.312	0	PA_with_intermediate	test	ward_and_allport	71	42.0	0.272	to_board	poldrack-single-stim	s628	False
0.1	484.322	0.276	484.598	0	PA_with_intermediate	test	ward_and_allport	82	42.0	0.276	to_hand	poldrack-single-stim	s628	False
0.1	484.599	0.225	484.824	0	PA_with_intermediate	test	ward_and_allport	71	42.0	0.225	to_board	poldrack-single-stim	s628	False
1.0	484.836	2.136	484.835	0	PA_with_intermediate	test	ward_and_allport	-1	42.0	n/a	feedback	poldrack-single-stim	s628	False
4.525	486.982	4.525	491.507	1	PA_without_intermediate	test	ward_and_allport	82	43.0	4.525	to_hand	poldrack-single-stim	s628	False
0.1	491.508	0.33	491.838	0	PA_without_intermediate	test	ward_and_allport	71	43.0	0.33	to_board	poldrack-single-stim	s628	False
0.1	491.847	0.553	492.4	0	PA_without_intermediate	test	ward_and_allport	82	43.0	0.553	to_hand	poldrack-single-stim	s628	False
0.1	492.4	0.582	492.982	0	PA_without_intermediate	test	ward_and_allport	71	43.0	0.582	to_board	poldrack-single-stim	s628	False
0.1	492.993	0.518	493.511	0	PA_without_intermediate	test	ward_and_allport	82	43.0	0.518	to_hand	poldrack-single-stim	s628	False
0.1	493.511	0.237	493.748	0	PA_without_intermediate	test	ward_and_allport	89	43.0	0.237	to_board	poldrack-single-stim	s628	False
1.0	493.763	5.128	493.762	0	PA_without_intermediate	test	ward_and_allport	-1	43.0	n/a	feedback	poldrack-single-stim	s628	False
4.563	498.9	4.563	503.463	1	PA_without_intermediate	test	ward_and_allport	71	44.0	4.563	to_hand	poldrack-single-stim	s628	False
0.1	503.463	0.337	503.8	0	PA_without_intermediate	test	ward_and_allport	82	44.0	0.337	to_board	poldrack-single-stim	s628	False
0.1	503.812	0.275	504.087	0	PA_without_intermediate	test	ward_and_allport	71	44.0	0.275	to_hand	poldrack-single-stim	s628	False
0.1	504.087	0.336	504.423	0	PA_without_intermediate	test	ward_and_allport	82	44.0	0.336	to_board	poldrack-single-stim	s628	False
0.1	504.433	0.296	504.729	0	PA_without_intermediate	test	ward_and_allport	71	44.0	0.296	to_hand	poldrack-single-stim	s628	False
0.1	504.73	0.281	505.011	0	PA_without_intermediate	test	ward_and_allport	89	44.0	0.281	to_board	poldrack-single-stim	s628	False
1.0	505.022	2.136	505.021	0	PA_without_intermediate	test	ward_and_allport	-1	44.0	n/a	feedback	poldrack-single-stim	s628	False
2.612	512.168	2.612	514.78	1	PA_without_intermediate	test	ward_and_allport	71	45.0	2.612	to_hand	poldrack-single-stim	s628	False
0.1	514.782	1.051	515.833	0	PA_without_intermediate	test	ward_and_allport	89	45.0	1.051	to_board	poldrack-single-stim	s628	False
0.1	515.844	0.357	516.201	0	PA_without_intermediate	test	ward_and_allport	71	45.0	0.357	to_hand	poldrack-single-stim	s628	False
0.1	516.201	0.275	516.476	0	PA_without_intermediate	test	ward_and_allport	89	45.0	0.275	to_board	poldrack-single-stim	s628	False
0.1	516.488	0.247	516.735	0	PA_without_intermediate	test	ward_and_allport	71	45.0	0.247	to_hand	poldrack-single-stim	s628	False
0.1	516.736	0.206	516.942	0	PA_without_intermediate	test	ward_and_allport	82	45.0	0.206	to_board	poldrack-single-stim	s628	False
1.0	516.956	5.264	516.955	0	PA_without_intermediate	test	ward_and_allport	-1	45.0	n/a	feedback	poldrack-single-stim	s628	False
5.023	522.228	5.023	527.251	1	PA_with_intermediate	test	ward_and_allport	89	46.0	5.023	to_hand	poldrack-single-stim	s628	False
0.1	527.253	0.28	527.533	0	PA_with_intermediate	test	ward_and_allport	82	46.0	0.28	to_board	poldrack-single-stim	s628	False
0.1	527.543	0.273	527.816	0	PA_with_intermediate	test	ward_and_allport	89	46.0	0.273	to_hand	poldrack-single-stim	s628	False
0.1	527.817	0.433	528.25	0	PA_with_intermediate	test	ward_and_allport	71	46.0	0.433	to_board	poldrack-single-stim	s628	False
0.1	528.261	0.509	528.77	0	PA_with_intermediate	test	ward_and_allport	82	46.0	0.509	to_hand	poldrack-single-stim	s628	False
0.1	528.772	0.223	528.995	0	PA_with_intermediate	test	ward_and_allport	89	46.0	0.223	to_board	poldrack-single-stim	s628	False
1.0	529.007	4.04	529.006	0	PA_with_intermediate	test	ward_and_allport	-1	46.0	n/a	feedback	poldrack-single-stim	s628	False
4.847	533.055	4.847	537.902	1	PA_with_intermediate	test	ward_and_allport	71	47.0	4.847	to_hand	poldrack-single-stim	s628	False
0.1	537.903	0.334	538.237	0	PA_with_intermediate	test	ward_and_allport	82	47.0	0.334	to_board	poldrack-single-stim	s628	False
0.1	538.243	0.271	538.514	0	PA_with_intermediate	test	ward_and_allport	71	47.0	0.271	to_hand	poldrack-single-stim	s628	False
0.1	538.515	0.266	538.781	0	PA_with_intermediate	test	ward_and_allport	89	47.0	0.266	to_board	poldrack-single-stim	s628	False
0.1	538.79	0.264	539.054	0	PA_with_intermediate	test	ward_and_allport	82	47.0	0.264	to_hand	poldrack-single-stim	s628	False
0.1	539.055	0.27	539.325	0	PA_with_intermediate	test	ward_and_allport	89	47.0	0.27	to_board	poldrack-single-stim	s628	False
1.0	539.338	2.136	539.337	0	PA_with_intermediate	test	ward_and_allport	-1	47.0	n/a	feedback	poldrack-single-stim	s628	False
