onset	duration	movement_onset	CTI	block_duration	correct	correct_response	cue	cue_switch	experiment_exp_id	key_press	response_time	stim_color	stim_number	switch_type	task	task_switch	trial_id	trial_type	worker_id	first_trial_of_block	junk
4.422	1.0	5.787	0.9	2.136	True	71.0	Color	n/a	twobytwo	71.0	0.465	orange	7.0	task_switch	color	switch	stim	poldrack-single-stim	s628	1	False
7.462	1.0	9.045	0.9	2.68	True	71.0	Color	stay	twobytwo	71.0	0.683	orange	9.0	cue_stay	color	stay	stim	poldrack-single-stim	s628	0	False
11.049	1.0	12.466	0.9	2.544	True	71.0	Orange-Blue	switch	twobytwo	71.0	0.517	orange	9.0	cue_switch	color	stay	stim	poldrack-single-stim	s628	0	False
14.499	1.0	15.835	0.9	2.272	True	89.0	Color	switch	twobytwo	89.0	0.436	blue	3.0	cue_switch	color	stay	stim	poldrack-single-stim	s628	0	False
17.678	1.0	19.086	0.9	2.272	True	89.0	Orange-Blue	switch	twobytwo	89.0	0.508	blue	2.0	cue_switch	color	stay	stim	poldrack-single-stim	s628	0	False
20.053	1.0	21.005	0.1	2.408	True	71.0	High-Low	n/a	twobytwo	71.0	0.852	orange	3.0	task_switch	magnitude	switch	stim	poldrack-single-stim	s628	0	False
22.566	1.0	23.353	0.1	2.136	True	71.0	High-Low	stay	twobytwo	71.0	0.687	orange	1.0	cue_stay	magnitude	stay	stim	poldrack-single-stim	s628	0	False
25.609	1.0	27.056	0.9	2.272	True	71.0	Color	n/a	twobytwo	71.0	0.547	orange	6.0	task_switch	color	switch	stim	poldrack-single-stim	s628	0	False
27.985	1.0	28.757	0.1	2.0	True	71.0	Orange-Blue	switch	twobytwo	71.0	0.672	orange	6.0	cue_switch	color	stay	stim	poldrack-single-stim	s628	0	False
30.892	1.0	32.289	0.9	2.136	True	71.0	Color	switch	twobytwo	71.0	0.497	orange	8.0	cue_switch	color	stay	stim	poldrack-single-stim	s628	0	False
33.935	1.0	35.274	0.9	2.272	True	71.0	Color	stay	twobytwo	71.0	0.439	orange	7.0	cue_stay	color	stay	stim	poldrack-single-stim	s628	0	False
37.114	1.0	38.547	0.9	2.0	True	89.0	Magnitude	n/a	twobytwo	89.0	0.533	orange	9.0	task_switch	magnitude	switch	stim	poldrack-single-stim	s628	0	False
39.217	1.0	40.244	0.1	2.68	True	71.0	Color	n/a	twobytwo	71.0	0.927	orange	7.0	task_switch	color	switch	stim	poldrack-single-stim	s628	0	False
42.805	1.0	44.31	0.9	2.0	True	89.0	Orange-Blue	switch	twobytwo	89.0	0.605	blue	1.0	cue_switch	color	stay	stim	poldrack-single-stim	s628	0	False
45.712	1.0	47.394	0.9	2.0	True	71.0	Magnitude	n/a	twobytwo	71.0	0.782	blue	4.0	task_switch	magnitude	switch	stim	poldrack-single-stim	s628	0	False
48.624	1.0	50.325	0.9	2.0	True	71.0	Magnitude	stay	twobytwo	71.0	0.801	orange	1.0	cue_stay	magnitude	stay	stim	poldrack-single-stim	s628	0	False
51.536	1.0	53.092	0.9	2.272	True	71.0	Color	n/a	twobytwo	71.0	0.656	orange	6.0	task_switch	color	switch	stim	poldrack-single-stim	s628	0	False
54.714	1.0	56.58	0.9	2.0	True	89.0	High-Low	n/a	twobytwo	89.0	0.966	blue	7.0	task_switch	magnitude	switch	stim	poldrack-single-stim	s628	0	False
56.821	1.0	57.98	0.1	2.0	True	71.0	Orange-Blue	n/a	twobytwo	71.0	1.059	orange	6.0	task_switch	color	switch	stim	poldrack-single-stim	s628	0	False
59.728	1.0	61.357	0.9	2.0	True	71.0	High-Low	n/a	twobytwo	71.0	0.729	orange	2.0	task_switch	magnitude	switch	stim	poldrack-single-stim	s628	0	False
62.632	1.0	64.1	0.9	2.68	True	89.0	High-Low	stay	twobytwo	89.0	0.568	orange	8.0	cue_stay	magnitude	stay	stim	poldrack-single-stim	s628	0	False
66.219	1.0	67.65	0.9	2.0	True	71.0	High-Low	stay	twobytwo	71.0	0.531	blue	2.0	cue_stay	magnitude	stay	stim	poldrack-single-stim	s628	0	False
68.323	1.0	69.219	0.1	2.136	True	89.0	Orange-Blue	n/a	twobytwo	89.0	0.796	blue	6.0	task_switch	color	switch	stim	poldrack-single-stim	s628	0	False
70.562	1.0	72.085	0.1	2.408	True	89.0	Color	switch	twobytwo	89.0	1.423	blue	3.0	cue_switch	color	stay	stim	poldrack-single-stim	s628	0	False
73.875	1.0	75.286	0.9	2.136	True	71.0	Color	stay	twobytwo	71.0	0.511	orange	2.0	cue_stay	color	stay	stim	poldrack-single-stim	s628	0	False
76.118	1.0	77.072	0.1	2.0	True	71.0	Color	stay	twobytwo	71.0	0.854	orange	9.0	cue_stay	color	stay	stim	poldrack-single-stim	s628	0	False
79.025	1.0	80.485	0.9	2.0	True	89.0	Magnitude	n/a	twobytwo	89.0	0.56	blue	9.0	task_switch	magnitude	switch	stim	poldrack-single-stim	s628	0	False
81.932	1.0	83.456	0.9	2.544	True	89.0	Color	n/a	twobytwo	89.0	0.624	blue	3.0	task_switch	color	switch	stim	poldrack-single-stim	s628	0	False
85.38	1.0	86.654	0.9	2.136	True	71.0	Color	stay	twobytwo	71.0	0.374	orange	6.0	cue_stay	color	stay	stim	poldrack-single-stim	s628	0	False
88.424	1.0	89.785	0.9	2.544	True	71.0	Color	stay	twobytwo	71.0	0.461	orange	8.0	cue_stay	color	stay	stim	poldrack-single-stim	s628	0	False
91.876	1.0	93.304	0.9	2.68	True	71.0	High-Low	n/a	twobytwo	71.0	0.528	blue	4.0	task_switch	magnitude	switch	stim	poldrack-single-stim	s628	0	False
95.463	1.0	96.992	0.9	2.0	True	89.0	Magnitude	switch	twobytwo	89.0	0.629	orange	7.0	cue_switch	magnitude	stay	stim	poldrack-single-stim	s628	0	False
97.57	1.0	98.58	0.1	2.272	True	71.0	Orange-Blue	n/a	twobytwo	71.0	0.91	orange	6.0	task_switch	color	switch	stim	poldrack-single-stim	s628	0	False
100.748	1.0	102.698	0.9	3.088	True	71.0	High-Low	n/a	twobytwo	71.0	1.05	orange	3.0	task_switch	magnitude	switch	stim	poldrack-single-stim	s628	0	False
103.943	1.0	104.852	0.1	2.0	True	89.0	Orange-Blue	n/a	twobytwo	89.0	0.809	blue	8.0	task_switch	color	switch	stim	poldrack-single-stim	s628	0	False
106.053	1.0	107.08	0.1	2.136	True	89.0	Orange-Blue	stay	twobytwo	89.0	0.927	blue	4.0	cue_stay	color	stay	stim	poldrack-single-stim	s628	0	False
109.093	1.0	110.466	0.9	2.136	True	89.0	Magnitude	n/a	twobytwo	89.0	0.473	orange	8.0	task_switch	magnitude	switch	stim	poldrack-single-stim	s628	0	False
111.335	1.0	112.026	0.1	2.0	True	89.0	Magnitude	stay	twobytwo	89.0	0.591	blue	7.0	cue_stay	magnitude	stay	stim	poldrack-single-stim	s628	0	False
113.442	1.0	114.309	0.1	2.272	True	89.0	High-Low	switch	twobytwo	89.0	0.767	blue	9.0	cue_switch	magnitude	stay	stim	poldrack-single-stim	s628	0	False
116.621	1.0	118.049	0.9	2.0	True	89.0	Color	n/a	twobytwo	89.0	0.528	blue	2.0	task_switch	color	switch	stim	poldrack-single-stim	s628	0	False
119.525	1.0	121.167	0.9	2.136	True	89.0	Magnitude	n/a	twobytwo	89.0	0.742	orange	6.0	task_switch	magnitude	switch	stim	poldrack-single-stim	s628	0	False
122.569	1.0	124.167	0.9	2.136	True	71.0	Color	n/a	twobytwo	71.0	0.698	orange	8.0	task_switch	color	switch	stim	poldrack-single-stim	s628	0	False
124.814	1.0	125.517	0.1	2.544	True	89.0	Color	stay	twobytwo	89.0	0.603	blue	9.0	cue_stay	color	stay	stim	poldrack-single-stim	s628	0	False
128.264	1.0	129.732	0.9	2.0	True	89.0	Magnitude	n/a	twobytwo	89.0	0.568	blue	6.0	task_switch	magnitude	switch	stim	poldrack-single-stim	s628	0	False
131.172	1.0	132.591	0.9	2.136	True	89.0	Magnitude	stay	twobytwo	89.0	0.519	blue	8.0	cue_stay	magnitude	stay	stim	poldrack-single-stim	s628	0	False
133.414	1.0	134.258	0.1	2.136	True	71.0	Orange-Blue	n/a	twobytwo	71.0	0.744	orange	1.0	task_switch	color	switch	stim	poldrack-single-stim	s628	0	False
135.652	1.0	136.735	0.1	2.136	True	71.0	Magnitude	n/a	twobytwo	71.0	0.983	orange	3.0	task_switch	magnitude	switch	stim	poldrack-single-stim	s628	0	False
137.897	1.0	138.798	0.1	2.0	True	89.0	Orange-Blue	n/a	twobytwo	89.0	0.801	blue	4.0	task_switch	color	switch	stim	poldrack-single-stim	s628	0	False
140.005	1.0	141.052	0.1	2.136	True	89.0	High-Low	n/a	twobytwo	89.0	0.947	blue	7.0	task_switch	magnitude	switch	stim	poldrack-single-stim	s628	0	False
143.049	1.0	144.401	0.9	2.0	True	71.0	High-Low	stay	twobytwo	71.0	0.452	orange	2.0	cue_stay	magnitude	stay	stim	poldrack-single-stim	s628	0	False
145.958	1.0	147.538	0.9	2.136	True	71.0	Magnitude	switch	twobytwo	71.0	0.68	blue	4.0	cue_switch	magnitude	stay	stim	poldrack-single-stim	s628	0	False
149.001	1.0	150.403	0.9	2.816	True	89.0	Color	n/a	twobytwo	89.0	0.502	blue	1.0	task_switch	color	switch	stim	poldrack-single-stim	s628	0	False
152.721	1.0	154.223	0.9	2.136	True	71.0	Color	stay	twobytwo	71.0	0.602	orange	2.0	cue_stay	color	stay	stim	poldrack-single-stim	s628	0	False
154.964	1.0	156.278	0.1	2.0	True	89.0	Color	stay	twobytwo	89.0	1.214	blue	6.0	cue_stay	color	stay	stim	poldrack-single-stim	s628	0	False
157.87	1.0	159.474	0.9	2.0	True	89.0	Magnitude	n/a	twobytwo	89.0	0.704	orange	7.0	task_switch	magnitude	switch	stim	poldrack-single-stim	s628	0	False
159.977	1.0	160.782	0.1	2.272	True	89.0	Magnitude	stay	twobytwo	89.0	0.705	blue	6.0	cue_stay	magnitude	stay	stim	poldrack-single-stim	s628	0	False
162.356	1.0	163.155	0.1	2.0	True	71.0	Orange-Blue	n/a	twobytwo	71.0	0.699	orange	8.0	task_switch	color	switch	stim	poldrack-single-stim	s628	0	False
164.463	1.0	165.369	0.1	2.0	True	89.0	Magnitude	n/a	twobytwo	89.0	0.806	blue	9.0	task_switch	magnitude	switch	stim	poldrack-single-stim	s628	0	False
167.37	1.0	169.072	0.9	2.0	True	71.0	Orange-Blue	n/a	twobytwo	71.0	0.802	orange	1.0	task_switch	color	switch	stim	poldrack-single-stim	s628	0	False
169.474	1.0	170.597	0.1	2.408	True	71.0	Magnitude	n/a	twobytwo	71.0	1.023	orange	1.0	task_switch	magnitude	switch	stim	poldrack-single-stim	s628	0	False
171.989	1.0	172.771	0.1	2.272	True	89.0	Magnitude	stay	twobytwo	89.0	0.682	orange	9.0	cue_stay	magnitude	stay	stim	poldrack-single-stim	s628	0	False
174.365	1.0	175.588	0.1	2.136	True	89.0	Orange-Blue	n/a	twobytwo	89.0	1.123	blue	4.0	task_switch	color	switch	stim	poldrack-single-stim	s628	0	False
177.408	1.0	179.046	0.9	2.0	True	89.0	Color	switch	twobytwo	89.0	0.738	blue	8.0	cue_switch	color	stay	stim	poldrack-single-stim	s628	0	False
180.314	1.0	181.792	0.9	2.0	True	71.0	Magnitude	n/a	twobytwo	71.0	0.578	blue	2.0	task_switch	magnitude	switch	stim	poldrack-single-stim	s628	0	False
183.219	1.0	184.821	0.9	2.136	True	71.0	Color	n/a	twobytwo	71.0	0.702	orange	9.0	task_switch	color	switch	stim	poldrack-single-stim	s628	0	False
185.461	1.0	186.414	0.1	2.0	True	89.0	Magnitude	n/a	twobytwo	89.0	0.853	blue	8.0	task_switch	magnitude	switch	stim	poldrack-single-stim	s628	0	False
188.368	1.0	190.217	0.9	2.136	True	89.0	Color	n/a	twobytwo	89.0	0.949	blue	6.0	task_switch	color	switch	stim	poldrack-single-stim	s628	0	False
190.616	1.0	191.444	0.1	2.408	True	71.0	Color	stay	twobytwo	71.0	0.728	orange	3.0	cue_stay	color	stay	stim	poldrack-single-stim	s628	0	False
193.928	1.0	195.408	0.9	2.136	True	89.0	High-Low	n/a	twobytwo	89.0	0.58	blue	7.0	task_switch	magnitude	switch	stim	poldrack-single-stim	s628	0	False
196.171	1.0	197.121	0.1	2.0	True	71.0	Orange-Blue	n/a	twobytwo	71.0	0.85	orange	4.0	task_switch	color	switch	stim	poldrack-single-stim	s628	0	False
199.075	1.0	201.256	0.9	2.136	True	71.0	High-Low	n/a	twobytwo	71.0	1.281	orange	1.0	task_switch	magnitude	switch	stim	poldrack-single-stim	s628	0	False
201.318	1.0	202.202	0.1	2.272	True	89.0	High-Low	stay	twobytwo	89.0	0.784	blue	8.0	cue_stay	magnitude	stay	stim	poldrack-single-stim	s628	0	False
203.697	1.0	204.783	0.1	2.0	True	89.0	Orange-Blue	n/a	twobytwo	89.0	0.986	blue	9.0	task_switch	color	switch	stim	poldrack-single-stim	s628	0	False
206.601	1.0	208.334	0.9	2.408	True	89.0	High-Low	n/a	twobytwo	89.0	0.833	blue	6.0	task_switch	magnitude	switch	stim	poldrack-single-stim	s628	0	False
209.914	1.0	211.391	0.9	2.0	True	89.0	Magnitude	switch	twobytwo	89.0	0.577	orange	9.0	cue_switch	magnitude	stay	stim	poldrack-single-stim	s628	0	False
212.823	1.0	214.253	0.9	2.136	True	71.0	Orange-Blue	n/a	twobytwo	71.0	0.53	orange	7.0	task_switch	color	switch	stim	poldrack-single-stim	s628	0	False
215.065	1.0	215.837	0.1	2.408	True	89.0	High-Low	n/a	twobytwo	89.0	0.672	orange	9.0	task_switch	magnitude	switch	stim	poldrack-single-stim	s628	0	False
217.577	1.0	218.339	0.1	2.136	True	71.0	Color	n/a	twobytwo	71.0	0.662	orange	9.0	task_switch	color	switch	stim	poldrack-single-stim	s628	0	False
220.618	1.0	222.257	0.9	2.408	True	71.0	High-Low	n/a	twobytwo	71.0	0.739	orange	4.0	task_switch	magnitude	switch	stim	poldrack-single-stim	s628	0	False
223.13	1.0	223.918	0.1	2.136	True	89.0	Orange-Blue	n/a	twobytwo	89.0	0.688	blue	7.0	task_switch	color	switch	stim	poldrack-single-stim	s628	0	False
239.689	1.0	241.242	0.9	2.0	True	89.0	High-Low	n/a	twobytwo	89.0	0.653	orange	7.0	task_switch	magnitude	switch	stim	poldrack-single-stim	s628	1	False
242.6	1.0	244.156	0.9	2.272	True	89.0	High-Low	stay	twobytwo	89.0	0.656	orange	9.0	cue_stay	magnitude	stay	stim	poldrack-single-stim	s628	0	False
245.779	1.0	247.105	0.9	2.0	True	89.0	Magnitude	switch	twobytwo	89.0	0.426	orange	9.0	cue_switch	magnitude	stay	stim	poldrack-single-stim	s628	0	False
248.684	1.0	250.209	0.9	2.272	True	71.0	High-Low	switch	twobytwo	71.0	0.625	blue	3.0	cue_switch	magnitude	stay	stim	poldrack-single-stim	s628	0	False
251.864	1.0	253.425	0.9	2.272	True	71.0	Magnitude	switch	twobytwo	71.0	0.661	blue	2.0	cue_switch	magnitude	stay	stim	poldrack-single-stim	s628	0	False
254.246	1.0	255.585	0.1	2.952	True	71.0	Orange-Blue	n/a	twobytwo	71.0	1.239	orange	3.0	task_switch	color	switch	stim	poldrack-single-stim	s628	0	False
257.302	1.0	258.057	0.1	2.68	True	71.0	Orange-Blue	stay	twobytwo	71.0	0.655	orange	1.0	cue_stay	color	stay	stim	poldrack-single-stim	s628	0	False
260.886	1.0	262.368	0.9	2.136	True	89.0	High-Low	n/a	twobytwo	89.0	0.582	orange	6.0	task_switch	magnitude	switch	stim	poldrack-single-stim	s628	0	False
263.125	1.0	263.825	0.1	2.272	True	89.0	Magnitude	switch	twobytwo	89.0	0.6	orange	6.0	cue_switch	magnitude	stay	stim	poldrack-single-stim	s628	0	False
266.307	1.0	267.693	0.9	2.272	True	89.0	High-Low	switch	twobytwo	89.0	0.486	orange	8.0	cue_switch	magnitude	stay	stim	poldrack-single-stim	s628	0	False
269.487	1.0	270.901	0.9	2.136	True	89.0	High-Low	stay	twobytwo	89.0	0.514	orange	7.0	cue_stay	magnitude	stay	stim	poldrack-single-stim	s628	0	False
272.529	1.0	274.306	0.9	2.408	True	71.0	Color	n/a	twobytwo	71.0	0.877	orange	9.0	task_switch	color	switch	stim	poldrack-single-stim	s628	0	False
275.041	1.0	276.303	0.1	2.136	True	89.0	High-Low	n/a	twobytwo	89.0	1.162	orange	7.0	task_switch	magnitude	switch	stim	poldrack-single-stim	s628	0	False
278.081	1.0	279.686	0.9	2.136	True	71.0	Magnitude	switch	twobytwo	71.0	0.705	blue	1.0	cue_switch	magnitude	stay	stim	poldrack-single-stim	s628	0	False
281.124	1.0	282.693	0.9	2.0	True	89.0	Orange-Blue	n/a	twobytwo	89.0	0.669	blue	4.0	task_switch	color	switch	stim	poldrack-single-stim	s628	0	False
284.031	1.0	285.549	0.9	2.0	True	71.0	Orange-Blue	stay	twobytwo	71.0	0.618	orange	1.0	cue_stay	color	stay	stim	poldrack-single-stim	s628	0	False
286.943	1.0	288.835	0.9	2.0	True	89.0	Magnitude	n/a	twobytwo	89.0	0.992	orange	6.0	task_switch	magnitude	switch	stim	poldrack-single-stim	s628	0	False
289.85	1.0	291.352	0.9	2.0	True	89.0	Color	n/a	twobytwo	89.0	0.602	blue	7.0	task_switch	color	switch	stim	poldrack-single-stim	s628	0	False
291.957	1.0	293.016	0.1	2.0	True	89.0	Magnitude	n/a	twobytwo	89.0	0.959	orange	6.0	task_switch	magnitude	switch	stim	poldrack-single-stim	s628	0	False
294.859	1.0	296.593	0.9	2.272	True	71.0	Color	n/a	twobytwo	71.0	0.834	orange	2.0	task_switch	color	switch	stim	poldrack-single-stim	s628	0	False
298.04	1.0	300.41	0.9	2.408	True	71.0	Color	stay	twobytwo	71.0	1.47	orange	8.0	cue_stay	color	stay	stim	poldrack-single-stim	s628	0	False
301.354	1.0	303.115	0.9	2.0	True	89.0	Color	stay	twobytwo	89.0	0.861	blue	2.0	cue_stay	color	stay	stim	poldrack-single-stim	s628	0	False
303.458	1.0	304.814	0.1	2.136	True	89.0	High-Low	n/a	twobytwo	89.0	1.256	blue	6.0	task_switch	magnitude	switch	stim	poldrack-single-stim	s628	0	False
305.701	1.0	306.525	0.1	2.0	True	71.0	Magnitude	switch	twobytwo	71.0	0.724	blue	3.0	cue_switch	magnitude	stay	stim	poldrack-single-stim	s628	0	False
308.605	1.0	310.152	0.9	2.136	True	71.0	Magnitude	stay	twobytwo	71.0	0.647	orange	2.0	cue_stay	magnitude	stay	stim	poldrack-single-stim	s628	0	False
310.848	1.0	311.562	0.1	2.544	True	89.0	Magnitude	stay	twobytwo	89.0	0.614	orange	9.0	cue_stay	magnitude	stay	stim	poldrack-single-stim	s628	0	False
314.296	1.0	315.889	0.9	2.68	True	89.0	Color	n/a	twobytwo	89.0	0.693	blue	9.0	task_switch	color	switch	stim	poldrack-single-stim	s628	0	False
317.88	1.0	319.37	0.9	3.088	True	71.0	Magnitude	n/a	twobytwo	71.0	0.59	blue	3.0	task_switch	magnitude	switch	stim	poldrack-single-stim	s628	0	False
321.875	1.0	323.479	0.9	2.136	True	89.0	Magnitude	stay	twobytwo	89.0	0.704	orange	6.0	cue_stay	magnitude	stay	stim	poldrack-single-stim	s628	0	False
324.917	1.0	326.644	0.9	2.544	True	89.0	Magnitude	stay	twobytwo	89.0	0.827	orange	8.0	cue_stay	magnitude	stay	stim	poldrack-single-stim	s628	0	False
328.369	1.0	329.973	0.9	2.0	True	89.0	Orange-Blue	n/a	twobytwo	89.0	0.704	blue	4.0	task_switch	color	switch	stim	poldrack-single-stim	s628	0	False
331.273	1.0	332.715	0.9	2.136	True	71.0	Color	switch	twobytwo	71.0	0.542	orange	7.0	cue_switch	color	stay	stim	poldrack-single-stim	s628	0	False
333.516	1.0	334.382	0.1	2.0	True	89.0	High-Low	n/a	twobytwo	89.0	0.766	orange	6.0	task_switch	magnitude	switch	stim	poldrack-single-stim	s628	0	False
336.425	1.0	338.494	0.9	2.408	True	71.0	Orange-Blue	n/a	twobytwo	71.0	1.169	orange	3.0	task_switch	color	switch	stim	poldrack-single-stim	s628	0	False
338.94	1.0	339.693	0.1	2.0	True	89.0	High-Low	n/a	twobytwo	89.0	0.653	blue	8.0	task_switch	magnitude	switch	stim	poldrack-single-stim	s628	0	False
341.052	1.0	341.856	0.1	2.0	True	71.0	High-Low	stay	twobytwo	71.0	0.704	blue	4.0	cue_stay	magnitude	stay	stim	poldrack-single-stim	s628	0	False
343.959	1.0	345.355	0.9	2.0	True	71.0	Color	n/a	twobytwo	71.0	0.496	orange	8.0	task_switch	color	switch	stim	poldrack-single-stim	s628	0	False
346.063	1.0	346.895	0.1	2.68	True	89.0	Color	stay	twobytwo	89.0	0.732	blue	7.0	cue_stay	color	stay	stim	poldrack-single-stim	s628	0	False
348.848	1.0	350.075	0.1	2.272	True	89.0	Orange-Blue	switch	twobytwo	89.0	1.127	blue	9.0	cue_switch	color	stay	stim	poldrack-single-stim	s628	0	False
352.029	1.0	353.451	0.9	2.408	True	71.0	Magnitude	n/a	twobytwo	71.0	0.522	blue	2.0	task_switch	magnitude	switch	stim	poldrack-single-stim	s628	0	False
355.343	1.0	357.184	0.9	3.224	True	71.0	Orange-Blue	n/a	twobytwo	71.0	0.941	orange	6.0	task_switch	color	switch	stim	poldrack-single-stim	s628	0	False
359.471	1.0	361.081	0.9	2.408	True	89.0	Magnitude	n/a	twobytwo	89.0	0.71	orange	8.0	task_switch	magnitude	switch	stim	poldrack-single-stim	s628	0	False
361.986	1.0	362.808	0.1	2.816	True	89.0	Magnitude	stay	twobytwo	89.0	0.722	blue	9.0	cue_stay	magnitude	stay	stim	poldrack-single-stim	s628	0	False
365.706	1.0	367.113	0.9	2.408	True	89.0	Orange-Blue	n/a	twobytwo	89.0	0.507	blue	6.0	task_switch	color	switch	stim	poldrack-single-stim	s628	0	False
369.019	1.0	370.869	0.9	2.136	True	89.0	Orange-Blue	stay	twobytwo	89.0	0.95	blue	8.0	cue_stay	color	stay	stim	poldrack-single-stim	s628	0	False
371.259	1.0	372.233	0.1	2.136	True	71.0	High-Low	n/a	twobytwo	71.0	0.874	orange	1.0	task_switch	magnitude	switch	stim	poldrack-single-stim	s628	0	False
373.501	1.0	374.535	0.1	2.0	True	71.0	Orange-Blue	n/a	twobytwo	71.0	0.934	orange	3.0	task_switch	color	switch	stim	poldrack-single-stim	s628	0	False
375.608	1.0	376.711	0.1	2.0	True	71.0	High-Low	n/a	twobytwo	71.0	1.003	blue	4.0	task_switch	magnitude	switch	stim	poldrack-single-stim	s628	0	False
377.72	1.0	378.641	0.1	2.272	True	89.0	Color	n/a	twobytwo	89.0	0.821	blue	7.0	task_switch	color	switch	stim	poldrack-single-stim	s628	0	False
380.896	1.0	382.298	0.9	2.408	True	71.0	Color	stay	twobytwo	71.0	0.502	orange	2.0	cue_stay	color	stay	stim	poldrack-single-stim	s628	0	False
384.211	1.0	385.698	0.9	2.0	True	89.0	Orange-Blue	switch	twobytwo	89.0	0.587	blue	4.0	cue_switch	color	stay	stim	poldrack-single-stim	s628	0	False
387.115	1.0	388.525	0.9	2.136	True	71.0	Magnitude	n/a	twobytwo	71.0	0.51	blue	1.0	task_switch	magnitude	switch	stim	poldrack-single-stim	s628	0	False
390.158	1.0	391.747	0.9	2.0	True	71.0	Magnitude	stay	twobytwo	71.0	0.689	orange	2.0	cue_stay	magnitude	stay	stim	poldrack-single-stim	s628	0	False
392.271	1.0	393.312	0.1	2.408	True	89.0	Magnitude	stay	twobytwo	89.0	0.941	blue	6.0	cue_stay	magnitude	stay	stim	poldrack-single-stim	s628	0	False
395.587	1.0	396.999	0.9	2.272	True	71.0	Color	n/a	twobytwo	71.0	0.512	orange	7.0	task_switch	color	switch	stim	poldrack-single-stim	s628	0	False
397.966	1.0	398.6	0.1	2.0	True	89.0	Color	stay	twobytwo	89.0	0.534	blue	6.0	cue_stay	color	stay	stim	poldrack-single-stim	s628	0	False
400.07	1.0	400.849	0.1	2.272	False	89.0	Magnitude	n/a	twobytwo	71.0	0.679	orange	8.0	task_switch	magnitude	switch	stim	poldrack-single-stim	s628	0	False
402.452	1.0	403.349	0.1	2.0	True	89.0	Orange-Blue	n/a	twobytwo	89.0	0.797	blue	9.0	task_switch	color	switch	stim	poldrack-single-stim	s628	0	False
405.357	1.0	407.026	0.9	2.0	True	71.0	High-Low	n/a	twobytwo	71.0	0.769	orange	1.0	task_switch	magnitude	switch	stim	poldrack-single-stim	s628	0	False
407.465	1.0	408.676	0.1	2.272	True	71.0	Orange-Blue	n/a	twobytwo	71.0	1.111	orange	1.0	task_switch	color	switch	stim	poldrack-single-stim	s628	0	False
409.841	1.0	411.138	0.1	2.136	True	71.0	Orange-Blue	stay	twobytwo	71.0	1.197	orange	9.0	cue_stay	color	stay	stim	poldrack-single-stim	s628	0	False
412.084	1.0	413.154	0.1	2.0	False	71.0	High-Low	n/a	twobytwo	89.0	0.97	blue	4.0	task_switch	magnitude	switch	stim	poldrack-single-stim	s628	0	False
414.991	1.0	416.477	0.9	2.0	True	89.0	Magnitude	switch	twobytwo	89.0	0.586	blue	8.0	cue_switch	magnitude	stay	stim	poldrack-single-stim	s628	0	False
417.898	1.0	419.281	0.9	2.0	True	89.0	Orange-Blue	n/a	twobytwo	89.0	0.483	blue	2.0	task_switch	color	switch	stim	poldrack-single-stim	s628	0	False
420.804	1.0	422.843	0.9	2.0	True	89.0	Magnitude	n/a	twobytwo	89.0	1.139	orange	9.0	task_switch	magnitude	switch	stim	poldrack-single-stim	s628	0	False
422.911	1.0	424.195	0.1	2.0	True	89.0	Color	n/a	twobytwo	89.0	1.184	blue	8.0	task_switch	color	switch	stim	poldrack-single-stim	s628	0	False
425.815	1.0	427.659	0.9	2.136	True	89.0	Magnitude	n/a	twobytwo	89.0	0.944	blue	6.0	task_switch	magnitude	switch	stim	poldrack-single-stim	s628	0	False
428.058	1.0	428.886	0.1	2.0	True	71.0	Magnitude	stay	twobytwo	71.0	0.728	orange	3.0	cue_stay	magnitude	stay	stim	poldrack-single-stim	s628	0	False
430.965	1.0	432.607	0.9	2.0	True	89.0	Orange-Blue	n/a	twobytwo	89.0	0.742	blue	7.0	task_switch	color	switch	stim	poldrack-single-stim	s628	0	False
433.069	1.0	434.142	0.1	2.136	True	71.0	Magnitude	n/a	twobytwo	71.0	0.973	orange	4.0	task_switch	magnitude	switch	stim	poldrack-single-stim	s628	0	False
436.112	1.0	437.678	0.9	2.0	True	71.0	Color	n/a	twobytwo	71.0	0.666	orange	1.0	task_switch	color	switch	stim	poldrack-single-stim	s628	0	False
438.221	1.0	439.104	0.1	2.136	True	89.0	Color	stay	twobytwo	89.0	0.783	blue	8.0	cue_stay	color	stay	stim	poldrack-single-stim	s628	0	False
440.461	1.0	441.627	0.1	2.68	True	89.0	Magnitude	n/a	twobytwo	89.0	1.066	blue	9.0	task_switch	magnitude	switch	stim	poldrack-single-stim	s628	0	False
444.048	1.0	445.489	0.9	2.272	True	89.0	Orange-Blue	n/a	twobytwo	89.0	0.541	blue	6.0	task_switch	color	switch	stim	poldrack-single-stim	s628	0	False
447.226	1.0	448.633	0.9	2.136	True	71.0	Color	switch	twobytwo	71.0	0.507	orange	9.0	cue_switch	color	stay	stim	poldrack-single-stim	s628	0	False
450.272	1.0	451.647	0.9	2.0	True	89.0	Magnitude	n/a	twobytwo	89.0	0.475	orange	7.0	task_switch	magnitude	switch	stim	poldrack-single-stim	s628	0	False
452.376	1.0	453.366	0.1	2.136	True	71.0	Color	n/a	twobytwo	71.0	0.89	orange	9.0	task_switch	color	switch	stim	poldrack-single-stim	s628	0	False
454.616	1.0	455.664	0.1	2.68	True	89.0	Magnitude	n/a	twobytwo	89.0	0.948	orange	9.0	task_switch	magnitude	switch	stim	poldrack-single-stim	s628	0	False
458.203	1.0	459.596	0.9	2.272	True	71.0	Color	n/a	twobytwo	71.0	0.493	orange	4.0	task_switch	color	switch	stim	poldrack-single-stim	s628	0	False
460.582	1.0	461.819	0.1	2.0	True	89.0	High-Low	n/a	twobytwo	89.0	1.137	blue	7.0	task_switch	magnitude	switch	stim	poldrack-single-stim	s628	0	False
477.009	1.0	478.565	0.9	2.0	True	71.0	Color	n/a	twobytwo	71.0	0.656	orange	7.0	task_switch	color	switch	stim	poldrack-single-stim	s628	1	False
479.913	1.0	481.347	0.9	2.136	True	71.0	Color	stay	twobytwo	71.0	0.534	orange	9.0	cue_stay	color	stay	stim	poldrack-single-stim	s628	0	False
482.956	1.0	484.356	0.9	2.0	True	71.0	Orange-Blue	switch	twobytwo	71.0	0.5	orange	9.0	cue_switch	color	stay	stim	poldrack-single-stim	s628	0	False
485.863	1.0	487.174	0.9	2.0	True	89.0	Color	switch	twobytwo	89.0	0.411	blue	3.0	cue_switch	color	stay	stim	poldrack-single-stim	s628	0	False
488.77	1.0	490.162	0.9	2.0	True	89.0	Orange-Blue	switch	twobytwo	89.0	0.492	blue	2.0	cue_switch	color	stay	stim	poldrack-single-stim	s628	0	False
490.876	1.0	491.982	0.1	2.272	True	71.0	Magnitude	n/a	twobytwo	71.0	1.006	orange	3.0	task_switch	magnitude	switch	stim	poldrack-single-stim	s628	0	False
493.252	1.0	494.029	0.1	2.408	True	71.0	Magnitude	stay	twobytwo	71.0	0.677	orange	1.0	cue_stay	magnitude	stay	stim	poldrack-single-stim	s628	0	False
496.567	1.0	498.012	0.9	2.0	True	71.0	Color	n/a	twobytwo	71.0	0.545	orange	6.0	task_switch	color	switch	stim	poldrack-single-stim	s628	0	False
498.674	1.0	500.028	0.1	2.0	True	71.0	Orange-Blue	switch	twobytwo	71.0	1.254	orange	6.0	cue_switch	color	stay	stim	poldrack-single-stim	s628	0	False
501.581	1.0	503.268	0.9	2.0	True	71.0	Color	switch	twobytwo	71.0	0.787	orange	8.0	cue_switch	color	stay	stim	poldrack-single-stim	s628	0	False
504.487	1.0	506.34	0.9	2.272	True	71.0	Color	stay	twobytwo	71.0	0.953	orange	7.0	cue_stay	color	stay	stim	poldrack-single-stim	s628	0	False
507.669	1.0	509.255	0.9	2.136	True	89.0	High-Low	n/a	twobytwo	89.0	0.686	orange	9.0	task_switch	magnitude	switch	stim	poldrack-single-stim	s628	0	False
509.912	1.0	510.778	0.1	2.0	True	71.0	Orange-Blue	n/a	twobytwo	71.0	0.766	orange	7.0	task_switch	color	switch	stim	poldrack-single-stim	s628	0	False
512.819	1.0	514.325	0.9	2.544	True	89.0	Color	switch	twobytwo	89.0	0.606	blue	1.0	cue_switch	color	stay	stim	poldrack-single-stim	s628	0	False
516.269	1.0	517.76	0.9	2.272	True	71.0	Magnitude	n/a	twobytwo	71.0	0.591	blue	4.0	task_switch	magnitude	switch	stim	poldrack-single-stim	s628	0	False
519.448	1.0	521.094	0.9	2.272	True	71.0	Magnitude	stay	twobytwo	71.0	0.746	orange	1.0	cue_stay	magnitude	stay	stim	poldrack-single-stim	s628	0	False
522.627	1.0	524.041	0.9	2.0	True	71.0	Color	n/a	twobytwo	71.0	0.514	orange	6.0	task_switch	color	switch	stim	poldrack-single-stim	s628	0	False
525.534	1.0	527.551	0.9	2.0	True	89.0	Magnitude	n/a	twobytwo	89.0	1.117	blue	7.0	task_switch	magnitude	switch	stim	poldrack-single-stim	s628	0	False
527.638	1.0	528.534	0.1	2.136	True	71.0	Orange-Blue	n/a	twobytwo	71.0	0.796	orange	6.0	task_switch	color	switch	stim	poldrack-single-stim	s628	0	False
530.681	1.0	532.367	0.9	2.0	True	71.0	High-Low	n/a	twobytwo	71.0	0.786	orange	2.0	task_switch	magnitude	switch	stim	poldrack-single-stim	s628	0	False
533.585	1.0	535.161	0.9	2.136	True	89.0	High-Low	stay	twobytwo	89.0	0.676	orange	8.0	cue_stay	magnitude	stay	stim	poldrack-single-stim	s628	0	False
536.626	1.0	538.347	0.9	2.272	True	71.0	High-Low	stay	twobytwo	71.0	0.821	blue	2.0	cue_stay	magnitude	stay	stim	poldrack-single-stim	s628	0	False
539.003	1.0	539.919	0.1	2.136	True	89.0	Orange-Blue	n/a	twobytwo	89.0	0.816	blue	6.0	task_switch	color	switch	stim	poldrack-single-stim	s628	0	False
541.246	1.0	542.508	0.1	2.272	True	89.0	Color	switch	twobytwo	89.0	1.162	blue	3.0	cue_switch	color	stay	stim	poldrack-single-stim	s628	0	False
544.425	1.0	546.354	0.9	2.0	True	71.0	Color	stay	twobytwo	71.0	1.029	orange	2.0	cue_stay	color	stay	stim	poldrack-single-stim	s628	0	False
546.529	1.0	547.721	0.1	2.816	True	71.0	Color	stay	twobytwo	71.0	1.092	orange	9.0	cue_stay	color	stay	stim	poldrack-single-stim	s628	0	False
550.257	1.0	552.013	0.9	2.408	True	89.0	High-Low	n/a	twobytwo	89.0	0.856	blue	9.0	task_switch	magnitude	switch	stim	poldrack-single-stim	s628	0	False
553.569	1.0	555.027	0.9	2.0	True	89.0	Color	n/a	twobytwo	89.0	0.558	blue	3.0	task_switch	color	switch	stim	poldrack-single-stim	s628	0	False
556.477	1.0	558.364	0.9	2.544	True	71.0	Color	stay	twobytwo	71.0	0.987	orange	6.0	cue_stay	color	stay	stim	poldrack-single-stim	s628	0	False
559.927	1.0	561.407	0.9	2.136	True	71.0	Color	stay	twobytwo	71.0	0.58	orange	8.0	cue_stay	color	stay	stim	poldrack-single-stim	s628	0	False
562.97	1.0	565.012	0.9	2.0	True	71.0	Magnitude	n/a	twobytwo	71.0	1.142	blue	4.0	task_switch	magnitude	switch	stim	poldrack-single-stim	s628	0	False
565.877	1.0	567.301	0.9	2.0	True	89.0	High-Low	switch	twobytwo	89.0	0.524	orange	7.0	cue_switch	magnitude	stay	stim	poldrack-single-stim	s628	0	False
567.981	1.0	569.197	0.1	2.136	True	71.0	Orange-Blue	n/a	twobytwo	71.0	1.116	orange	6.0	task_switch	color	switch	stim	poldrack-single-stim	s628	0	False
571.028	1.0	572.872	0.9	2.136	True	71.0	High-Low	n/a	twobytwo	71.0	0.944	orange	3.0	task_switch	magnitude	switch	stim	poldrack-single-stim	s628	0	False
573.269	1.0	574.093	0.1	2.272	True	89.0	Color	n/a	twobytwo	89.0	0.724	blue	8.0	task_switch	color	switch	stim	poldrack-single-stim	s628	0	False
575.647	1.0	576.667	0.1	3.224	True	89.0	Color	stay	twobytwo	89.0	0.92	blue	4.0	cue_stay	color	stay	stim	poldrack-single-stim	s628	0	False
579.781	1.0	581.436	0.9	2.0	True	89.0	High-Low	n/a	twobytwo	89.0	0.755	orange	8.0	task_switch	magnitude	switch	stim	poldrack-single-stim	s628	0	False
581.888	1.0	583.411	0.1	2.0	True	89.0	High-Low	stay	twobytwo	89.0	1.423	blue	7.0	cue_stay	magnitude	stay	stim	poldrack-single-stim	s628	0	False
583.995	1.0	584.843	0.1	2.272	True	89.0	Magnitude	switch	twobytwo	89.0	0.748	blue	9.0	cue_switch	magnitude	stay	stim	poldrack-single-stim	s628	0	False
587.171	1.0	588.804	0.9	2.136	True	89.0	Color	n/a	twobytwo	89.0	0.733	blue	2.0	task_switch	color	switch	stim	poldrack-single-stim	s628	0	False
590.213	1.0	592.073	0.9	2.0	True	89.0	High-Low	n/a	twobytwo	89.0	0.96	orange	6.0	task_switch	magnitude	switch	stim	poldrack-single-stim	s628	0	False
593.12	1.0	595.083	0.9	2.0	True	71.0	Orange-Blue	n/a	twobytwo	71.0	1.063	orange	8.0	task_switch	color	switch	stim	poldrack-single-stim	s628	0	False
595.227	1.0	595.996	0.1	2.0	True	89.0	Orange-Blue	stay	twobytwo	89.0	0.669	blue	9.0	cue_stay	color	stay	stim	poldrack-single-stim	s628	0	False
598.131	1.0	599.721	0.9	2.68	True	89.0	High-Low	n/a	twobytwo	89.0	0.69	blue	6.0	task_switch	magnitude	switch	stim	poldrack-single-stim	s628	0	False
601.718	1.0	603.234	0.9	2.0	True	89.0	High-Low	stay	twobytwo	89.0	0.616	blue	8.0	cue_stay	magnitude	stay	stim	poldrack-single-stim	s628	0	False
603.825	1.0	604.604	0.1	2.272	True	71.0	Orange-Blue	n/a	twobytwo	71.0	0.679	orange	1.0	task_switch	color	switch	stim	poldrack-single-stim	s628	0	False
606.203	1.0	607.064	0.1	2.0	True	71.0	Magnitude	n/a	twobytwo	71.0	0.761	orange	3.0	task_switch	magnitude	switch	stim	poldrack-single-stim	s628	0	False
608.316	1.0	609.49	0.1	2.272	True	89.0	Orange-Blue	n/a	twobytwo	89.0	1.074	blue	4.0	task_switch	color	switch	stim	poldrack-single-stim	s628	0	False
610.692	1.0	611.505	0.1	2.952	True	89.0	Magnitude	n/a	twobytwo	89.0	0.713	blue	7.0	task_switch	magnitude	switch	stim	poldrack-single-stim	s628	0	False
614.55	1.0	616.009	0.9	2.0	True	71.0	Magnitude	stay	twobytwo	71.0	0.559	orange	2.0	cue_stay	magnitude	stay	stim	poldrack-single-stim	s628	0	False
617.457	1.0	619.445	0.9	2.0	True	71.0	High-Low	switch	twobytwo	71.0	1.088	blue	4.0	cue_switch	magnitude	stay	stim	poldrack-single-stim	s628	0	False
620.364	1.0	621.799	0.9	2.0	True	89.0	Orange-Blue	n/a	twobytwo	89.0	0.535	blue	1.0	task_switch	color	switch	stim	poldrack-single-stim	s628	0	False
623.271	1.0	624.805	0.9	2.0	True	71.0	Orange-Blue	stay	twobytwo	71.0	0.634	orange	2.0	cue_stay	color	stay	stim	poldrack-single-stim	s628	0	False
625.38	1.0	626.228	0.1	2.136	True	89.0	Orange-Blue	stay	twobytwo	89.0	0.748	blue	6.0	cue_stay	color	stay	stim	poldrack-single-stim	s628	0	False
628.423	1.0	630.666	0.9	2.0	True	89.0	High-Low	n/a	twobytwo	89.0	1.343	orange	7.0	task_switch	magnitude	switch	stim	poldrack-single-stim	s628	0	False
630.528	1.0	631.628	0.1	2.0	True	89.0	High-Low	stay	twobytwo	89.0	1.0	blue	6.0	cue_stay	magnitude	stay	stim	poldrack-single-stim	s628	0	False
632.636	1.0	633.602	0.1	2.0	True	71.0	Color	n/a	twobytwo	71.0	0.866	orange	8.0	task_switch	color	switch	stim	poldrack-single-stim	s628	0	False
634.743	1.0	635.682	0.1	2.272	True	89.0	Magnitude	n/a	twobytwo	89.0	0.839	blue	9.0	task_switch	magnitude	switch	stim	poldrack-single-stim	s628	0	False
637.925	1.0	639.36	0.9	2.136	True	71.0	Color	n/a	twobytwo	71.0	0.535	orange	1.0	task_switch	color	switch	stim	poldrack-single-stim	s628	0	False
640.167	1.0	641.461	0.1	2.0	True	71.0	Magnitude	n/a	twobytwo	71.0	1.194	orange	1.0	task_switch	magnitude	switch	stim	poldrack-single-stim	s628	0	False
642.271	1.0	643.06	0.1	2.136	True	89.0	Magnitude	stay	twobytwo	89.0	0.689	orange	9.0	cue_stay	magnitude	stay	stim	poldrack-single-stim	s628	0	False
644.514	1.0	645.555	0.1	2.816	True	89.0	Color	n/a	twobytwo	89.0	0.941	blue	4.0	task_switch	color	switch	stim	poldrack-single-stim	s628	0	False
648.234	1.0	649.78	0.9	2.408	True	89.0	Orange-Blue	switch	twobytwo	89.0	0.646	blue	8.0	cue_switch	color	stay	stim	poldrack-single-stim	s628	0	False
651.549	1.0	653.196	0.9	2.0	True	71.0	High-Low	n/a	twobytwo	71.0	0.747	blue	2.0	task_switch	magnitude	switch	stim	poldrack-single-stim	s628	0	False
654.453	1.0	656.088	0.9	2.136	True	71.0	Color	n/a	twobytwo	71.0	0.735	orange	9.0	task_switch	color	switch	stim	poldrack-single-stim	s628	0	False
656.693	1.0	657.614	0.1	2.136	True	89.0	Magnitude	n/a	twobytwo	89.0	0.821	blue	8.0	task_switch	magnitude	switch	stim	poldrack-single-stim	s628	0	False
659.739	1.0	661.197	0.9	2.136	True	89.0	Color	n/a	twobytwo	89.0	0.558	blue	6.0	task_switch	color	switch	stim	poldrack-single-stim	s628	0	False
661.982	1.0	662.895	0.1	2.544	True	71.0	Color	stay	twobytwo	71.0	0.813	orange	3.0	cue_stay	color	stay	stim	poldrack-single-stim	s628	0	False
665.43	1.0	666.946	0.9	2.136	True	89.0	Magnitude	n/a	twobytwo	89.0	0.616	blue	7.0	task_switch	magnitude	switch	stim	poldrack-single-stim	s628	0	False
667.672	1.0	668.594	0.1	2.0	True	71.0	Color	n/a	twobytwo	71.0	0.822	orange	4.0	task_switch	color	switch	stim	poldrack-single-stim	s628	0	False
670.579	1.0	672.141	0.9	2.0	True	71.0	High-Low	n/a	twobytwo	71.0	0.662	orange	1.0	task_switch	magnitude	switch	stim	poldrack-single-stim	s628	0	False
672.686	1.0	673.937	0.1	2.0	True	89.0	High-Low	stay	twobytwo	89.0	1.151	blue	8.0	cue_stay	magnitude	stay	stim	poldrack-single-stim	s628	0	False
674.798	1.0	675.746	0.1	2.0	True	89.0	Color	n/a	twobytwo	89.0	0.848	blue	9.0	task_switch	color	switch	stim	poldrack-single-stim	s628	0	False
677.704	1.0	679.273	0.9	2.136	True	89.0	High-Low	n/a	twobytwo	89.0	0.669	blue	6.0	task_switch	magnitude	switch	stim	poldrack-single-stim	s628	0	False
680.746	1.0	682.212	0.9	2.0	True	89.0	Magnitude	switch	twobytwo	89.0	0.566	orange	9.0	cue_switch	magnitude	stay	stim	poldrack-single-stim	s628	0	False
683.657	1.0	685.081	0.9	2.0	True	71.0	Color	n/a	twobytwo	71.0	0.524	orange	7.0	task_switch	color	switch	stim	poldrack-single-stim	s628	0	False
685.764	1.0	687.09	0.1	2.0	True	89.0	High-Low	n/a	twobytwo	89.0	1.226	orange	9.0	task_switch	magnitude	switch	stim	poldrack-single-stim	s628	0	False
687.868	1.0	689.63	0.1	2.136	True	71.0	Orange-Blue	n/a	twobytwo	71.0	1.662	orange	9.0	task_switch	color	switch	stim	poldrack-single-stim	s628	0	False
690.91	1.0	692.579	0.9	2.136	True	71.0	High-Low	n/a	twobytwo	71.0	0.769	orange	4.0	task_switch	magnitude	switch	stim	poldrack-single-stim	s628	0	False
693.153	1.0	693.889	0.1	2.136	True	89.0	Color	n/a	twobytwo	89.0	0.636	blue	7.0	task_switch	color	switch	stim	poldrack-single-stim	s628	0	False
