onset	duration	movement_onset	EV	action	block_duration	experiment_exp_id	gain_amount	gain_probability	key_press	loss_amount	loss_probability	num_cards	num_click_in_round	num_loss_cards	risk	response_time	total_cards	trial_id	trial_type	worker_id	junk	feedback
3.015	8.441	11.456	0.5677121756448678	draw_card	8.441	columbia_card_task_fmri	12.0	0.8333333333333334	89.0	-70.0	0.1666666666666666	6.0	1.0	1.0	-3.396702297149435	8.441	n/a	stim	poldrack-single-stim	s628	False	1
11.458	8.452	19.91	-2.1656211576884647	draw_card	8.452	columbia_card_task_fmri	12.0	0.8	89.0	-70.0	0.2	6.0	2.0	1.0	-1.161856613141616	8.452	n/a	stim	poldrack-single-stim	s628	False	1
19.912	1.29	21.202	-6.265621157688466	draw_card	1.29	columbia_card_task_fmri	12.0	0.75	89.0	-70.0	0.25	6.0	3.0	1.0	1.539401401669764	1.29	n/a	stim	poldrack-single-stim	s628	False	1
21.203	9.064	30.267	-13.098954491021798	end_round	9.064	columbia_card_task_fmri	12.0	0.6666666666666667	71.0	-70.0	0.3333333333333333	6.0	4.0	1.0	4.681820652186353	9.064	3.0	stim	poldrack-single-stim	s628	False	1
31.022	1.5	30.271	n/a	-1.0	2.25	columbia_card_task_fmri	n/a	n/a	-1.0	n/a	n/a	n/a	n/a	n/a	n/a	n/a	n/a	ITI	poldrack-single-stim	s628	False	0
32.527	7.471	39.998	1.4010455089782017	draw_card	7.471	columbia_card_task_fmri	14.0	0.8333333333333334	89.0	-75.0	0.1666666666666666	6.0	1.0	1.0	-0.7943572050372367	7.471	n/a	stim	poldrack-single-stim	s628	False	1
40.0	1.105	41.105	-1.565621157688465	draw_card	1.105	columbia_card_task_fmri	14.0	0.8	89.0	-75.0	0.2	6.0	2.0	1.0	1.6321768158448222	1.105	n/a	stim	poldrack-single-stim	s628	False	1
41.106	0.47	41.576	-6.015621157688466	draw_card	0.47	columbia_card_task_fmri	14.0	0.75	89.0	-75.0	0.25	6.0	3.0	1.0	4.564976043566489	0.47	3.0	stim	poldrack-single-stim	s628	False	0
42.332	1.5	41.581	n/a	-1.0	2.386	columbia_card_task_fmri	n/a	n/a	-1.0	n/a	n/a	n/a	n/a	n/a	n/a	n/a	n/a	ITI	poldrack-single-stim	s628	False	0
43.968	4.689	48.657	3.067712175644868	draw_card	4.689	columbia_card_task_fmri	15.0	0.8333333333333334	89.0	-70.0	0.1666666666666666	6.0	1.0	1.0	-2.28154015861918	4.689	n/a	stim	poldrack-single-stim	s628	False	1
48.658	0.763	49.421	0.2343788423115338	draw_card	0.763	columbia_card_task_fmri	15.0	0.8	89.0	-70.0	0.2	6.0	2.0	1.0	0.0354663379431272	0.763	n/a	stim	poldrack-single-stim	s628	False	1
49.422	0.421	49.843	-4.015621157688466	draw_card	0.421	columbia_card_task_fmri	15.0	0.75	89.0	-70.0	0.25	6.0	3.0	1.0	2.8359653415045187	0.421	n/a	stim	poldrack-single-stim	s628	False	1
49.845	1.103	50.948	-11.098954491021797	end_round	1.103	columbia_card_task_fmri	15.0	0.6666666666666667	71.0	-70.0	0.3333333333333333	6.0	4.0	1.0	6.093760533318111	1.103	3.0	stim	poldrack-single-stim	s628	False	1
51.702	1.5	50.951	n/a	-1.0	2.59	columbia_card_task_fmri	n/a	n/a	-1.0	n/a	n/a	n/a	n/a	n/a	n/a	n/a	n/a	ITI	poldrack-single-stim	s628	False	0
53.543	4.413	57.956	3.9010455089782017	draw_card	4.413	columbia_card_task_fmri	17.0	0.8333333333333334	89.0	-75.0	0.1666666666666666	6.0	1.0	1.0	0.3212307315391314	4.413	n/a	stim	poldrack-single-stim	s628	False	1
57.96	0.428	58.388	0.8343788423115353	draw_card	0.428	columbia_card_task_fmri	17.0	0.8	89.0	-75.0	0.2	6.0	2.0	1.0	2.8298968543666945	0.428	n/a	stim	poldrack-single-stim	s628	False	1
58.39	0.372	58.762	-3.765621157688466	draw_card	0.372	columbia_card_task_fmri	17.0	0.75	89.0	-75.0	0.25	6.0	3.0	1.0	5.86190713052374	0.372	n/a	stim	poldrack-single-stim	s628	False	1
58.764	0.635	59.399	-11.432287824355132	end_round	0.635	columbia_card_task_fmri	17.0	0.6666666666666667	71.0	-75.0	0.3333333333333333	6.0	4.0	1.0	9.388862357988174	0.635	3.0	stim	poldrack-single-stim	s628	False	1
60.151	1.5	59.4	n/a	-1.0	2.658	columbia_card_task_fmri	n/a	n/a	-1.0	n/a	n/a	n/a	n/a	n/a	n/a	n/a	n/a	ITI	poldrack-single-stim	s628	False	0
62.06	9.12	71.18	5.234378842311534	draw_card	9.12	columbia_card_task_fmri	24.0	0.75	89.0	-60.0	0.25	8.0	1.0	2.0	2.403757780937504	9.12	1.0	stim	poldrack-single-stim	s628	False	0
71.933	1.5	71.182	n/a	-1.0	2.386	columbia_card_task_fmri	n/a	n/a	-1.0	n/a	n/a	n/a	n/a	n/a	n/a	n/a	n/a	ITI	poldrack-single-stim	s628	False	0
73.572	2.536	76.108	5.234378842311534	draw_card	2.536	columbia_card_task_fmri	29.0	0.75	89.0	-75.0	0.25	8.0	1.0	2.0	11.050844604289075	2.536	n/a	stim	poldrack-single-stim	s628	False	1
76.111	4.39	80.501	1.520093128025822	draw_card	4.39	columbia_card_task_fmri	29.0	0.7142857142857143	89.0	-75.0	0.2857142857142857	8.0	2.0	2.0	12.99763905473018	4.39	2.0	stim	poldrack-single-stim	s628	False	0
81.258	1.5	80.507	n/a	-1.0	2.386	columbia_card_task_fmri	n/a	n/a	-1.0	n/a	n/a	n/a	n/a	n/a	n/a	n/a	n/a	ITI	poldrack-single-stim	s628	False	0
82.896	8.339	91.235	1.0121566200893142	draw_card	8.339	columbia_card_task_fmri	17.0	0.7777777777777778	89.0	-65.0	0.2222222222222222	9.0	1.0	2.0	0.1259279178957228	8.339	n/a	stim	poldrack-single-stim	s628	False	1
91.236	2.23	93.466	-1.2656211576884662	draw_card	2.23	columbia_card_task_fmri	17.0	0.75	89.0	-65.0	0.25	9.0	2.0	2.0	1.539401401669764	2.23	n/a	stim	poldrack-single-stim	s628	False	1
93.467	9.329	102.796	-4.194192586259893	draw_card	9.329	columbia_card_task_fmri	17.0	0.7142857142857143	89.0	-65.0	0.2857142857142857	9.0	3.0	2.0	3.0732756217850152	9.329	n/a	stim	poldrack-single-stim	s628	False	1
102.798	3.681	106.479	-8.098954491021797	draw_card	3.681	columbia_card_task_fmri	17.0	0.6666666666666667	89.0	-65.0	0.3333333333333333	9.0	4.0	2.0	4.681820652186346	3.681	n/a	stim	poldrack-single-stim	s628	False	1
106.481	6.414	112.895	-13.565621157688469	end_round	6.414	columbia_card_task_fmri	17.0	0.6	71.0	-65.0	0.4	9.0	5.0	2.0	6.195849851750268	6.414	4.0	stim	poldrack-single-stim	s628	False	1
113.649	1.5	112.898	n/a	-1.0	2.25	columbia_card_task_fmri	n/a	n/a	-1.0	n/a	n/a	n/a	n/a	n/a	n/a	n/a	n/a	ITI	poldrack-single-stim	s628	False	0
115.151	5.324	120.475	5.3343788423115335	draw_card	5.324	columbia_card_task_fmri	14.0	0.9	89.0	-95.0	0.1	10.0	1.0	1.0	-1.2616246873140966	5.324	1.0	stim	poldrack-single-stim	s628	False	0
121.23	1.5	120.479	n/a	-1.0	2.318	columbia_card_task_fmri	n/a	n/a	-1.0	n/a	n/a	n/a	n/a	n/a	n/a	n/a	n/a	ITI	poldrack-single-stim	s628	False	0
122.8	4.503	127.303	1.2343788423115338	draw_card	4.503	columbia_card_task_fmri	15.0	0.8	89.0	-65.0	0.2	10.0	1.0	2.0	-1.9599607650071744	4.503	n/a	stim	poldrack-single-stim	s628	False	1
127.304	1.224	128.528	-0.543398935466243	draw_card	1.224	columbia_card_task_fmri	15.0	0.7777777777777778	89.0	-65.0	0.2222222222222222	10.0	2.0	2.0	-0.7037269476400638	1.224	2.0	stim	poldrack-single-stim	s628	False	0
129.282	1.5	128.531	n/a	-1.0	2.25	columbia_card_task_fmri	n/a	n/a	-1.0	n/a	n/a	n/a	n/a	n/a	n/a	n/a	n/a	ITI	poldrack-single-stim	s628	False	0
130.784	7.174	137.958	2.8343788423115357	draw_card	7.174	columbia_card_task_fmri	17.0	0.8	89.0	-65.0	0.2	10.0	1.0	2.0	-1.161856613141616	7.174	n/a	stim	poldrack-single-stim	s628	False	1
137.96	3.389	141.349	1.0121566200893142	draw_card	3.389	columbia_card_task_fmri	17.0	0.7777777777777778	89.0	-65.0	0.2222222222222222	10.0	2.0	2.0	0.1259279178957228	3.389	2.0	stim	poldrack-single-stim	s628	False	0
142.105	1.5	141.354	n/a	-1.0	2.25	columbia_card_task_fmri	n/a	n/a	-1.0	n/a	n/a	n/a	n/a	n/a	n/a	n/a	n/a	ITI	poldrack-single-stim	s628	False	0
143.606	5.682	149.288	1.4010455089782017	draw_card	5.682	columbia_card_task_fmri	13.0	0.8333333333333334	89.0	-70.0	0.1666666666666666	12.0	1.0	2.0	-3.0250045618732564	5.682	n/a	stim	poldrack-single-stim	s628	False	1
149.291	0.539	149.83	0.1434697514024403	draw_card	0.539	columbia_card_task_fmri	13.0	0.8181818181818181	89.0	-70.0	0.1818181818181818	12.0	2.0	2.0	-1.947339026364375	0.539	n/a	stim	poldrack-single-stim	s628	False	1
149.831	0.692	150.523	-1.3656211576884658	draw_card	0.692	columbia_card_task_fmri	13.0	0.8	89.0	-70.0	0.2	12.0	3.0	2.0	-0.7627703927122909	0.692	n/a	stim	poldrack-single-stim	s628	False	1
150.526	0.563	151.089	-3.210065602132911	draw_card	0.563	columbia_card_task_fmri	13.0	0.7777777777777778	89.0	-70.0	0.2222222222222222	12.0	4.0	2.0	0.5407882195283022	0.563	n/a	stim	poldrack-single-stim	s628	False	1
151.091	1.541	152.632	-5.515621157688466	draw_card	1.541	columbia_card_task_fmri	13.0	0.75	89.0	-70.0	0.25	12.0	5.0	2.0	1.971569565984524	1.541	n/a	stim	poldrack-single-stim	s628	False	1
152.635	4.246	156.881	-8.47990687197418	draw_card	4.246	columbia_card_task_fmri	13.0	0.7142857142857143	89.0	-70.0	0.2857142857142857	12.0	6.0	2.0	3.5242198793892285	4.246	n/a	stim	poldrack-single-stim	s628	False	1
156.883	12.323	169.206	-12.43228782435513	draw_card	12.323	columbia_card_task_fmri	13.0	0.6666666666666667	89.0	-70.0	0.3333333333333333	12.0	7.0	2.0	5.152449061097016	12.323	n/a	stim	poldrack-single-stim	s628	False	1
169.209	3.57	172.779	-17.965621157688467	end_round	3.57	columbia_card_task_fmri	13.0	0.6	71.0	-70.0	0.4	12.0	8.0	2.0	6.685000849726727	3.57	7.0	stim	poldrack-single-stim	s628	False	1
173.537	1.5	172.786	n/a	-1.0	2.386	columbia_card_task_fmri	n/a	n/a	-1.0	n/a	n/a	n/a	n/a	n/a	n/a	n/a	n/a	ITI	poldrack-single-stim	s628	False	0
175.175	4.16	179.335	1.4010455089782017	draw_card	4.16	columbia_card_task_fmri	15.0	0.8333333333333334	89.0	-80.0	0.1666666666666666	12.0	1.0	2.0	1.4369726805581635	4.16	n/a	stim	poldrack-single-stim	s628	False	1
179.338	0.889	180.227	-0.0383484304157413	draw_card	0.889	columbia_card_task_fmri	15.0	0.8181818181818181	89.0	-80.0	0.1818181818181818	12.0	2.0	2.0	2.671178165661253	0.889	n/a	stim	poldrack-single-stim	s628	False	1
180.23	1.368	181.598	-1.7656211576884662	draw_card	1.368	columbia_card_task_fmri	15.0	0.8	89.0	-80.0	0.2	12.0	3.0	2.0	4.027760505883855	1.368	n/a	stim	poldrack-single-stim	s628	False	1
181.6	0.604	182.204	-3.876732268799578	draw_card	0.604	columbia_card_task_fmri	15.0	0.7777777777777778	89.0	-80.0	0.2222222222222222	12.0	4.0	2.0	5.520552115588835	0.604	n/a	stim	poldrack-single-stim	s628	False	1
182.207	3.744	185.951	-6.515621157688466	draw_card	3.744	columbia_card_task_fmri	15.0	0.75	89.0	-80.0	0.25	12.0	5.0	2.0	7.158970988926029	3.744	n/a	stim	poldrack-single-stim	s628	False	1
185.953	1.623	187.576	-9.908478300545603	draw_card	1.623	columbia_card_task_fmri	15.0	0.7142857142857143	89.0	-80.0	0.2857142857142857	12.0	6.0	2.0	8.936877605369304	1.623	n/a	stim	poldrack-single-stim	s628	False	1
187.578	2.096	189.674	-14.43228782435513	draw_card	2.096	columbia_card_task_fmri	15.0	0.6666666666666667	89.0	-80.0	0.3333333333333333	12.0	7.0	2.0	10.801261812343576	2.096	7.0	stim	poldrack-single-stim	s628	False	0
190.427	1.5	189.676	n/a	-1.0	2.386	columbia_card_task_fmri	n/a	n/a	-1.0	n/a	n/a	n/a	n/a	n/a	n/a	n/a	n/a	ITI	poldrack-single-stim	s628	False	0
192.066	3.271	195.337	0.4343788423115349	draw_card	3.271	columbia_card_task_fmri	14.0	0.8	89.0	-65.0	0.2	15.0	1.0	3.0	-2.358976976000552	3.271	n/a	stim	poldrack-single-stim	s628	False	1
195.339	2.768	198.107	-0.6941925862598932	draw_card	2.768	columbia_card_task_fmri	14.0	0.7857142857142857	89.0	-65.0	0.2142857142857142	15.0	2.0	3.0	-1.5452112798582718	2.768	n/a	stim	poldrack-single-stim	s628	False	1
198.109	1.286	199.395	-1.996390388457698	draw_card	1.286	columbia_card_task_fmri	14.0	0.7692307692307692	89.0	-65.0	0.2307692307692307	15.0	3.0	3.0	-0.6782825345475985	1.286	n/a	stim	poldrack-single-stim	s628	False	1
199.398	0.525	199.923	-3.515621157688466	draw_card	0.525	columbia_card_task_fmri	14.0	0.75	89.0	-65.0	0.25	15.0	4.0	3.0	0.2430247955366695	0.525	n/a	stim	poldrack-single-stim	s628	False	1
199.926	1.962	201.888	-5.311075703143011	draw_card	1.962	columbia_card_task_fmri	14.0	0.7272727272727273	89.0	-65.0	0.2727272727272727	15.0	5.0	3.0	1.2165841838317988	1.962	5.0	stim	poldrack-single-stim	s628	False	0
202.643	1.5	201.892	n/a	-1.0	2.726	columbia_card_task_fmri	n/a	n/a	-1.0	n/a	n/a	n/a	n/a	n/a	n/a	n/a	n/a	ITI	poldrack-single-stim	s628	False	0
204.621	7.853	212.474	0.3593788423115338	draw_card	7.853	columbia_card_task_fmri	1.0	0.9375	89.0	-45.0	0.0625	16.0	1.0	1.0	-22.681076558219075	7.853	n/a	stim	poldrack-single-stim	s628	False	1
212.477	0.827	213.304	0.1677121756448674	end_round	0.827	columbia_card_task_fmri	1.0	0.9333333333333332	71.0	-45.0	0.0666666666666666	16.0	2.0	1.0	-22.34793404851393	0.827	1.0	stim	poldrack-single-stim	s628	False	1
214.058	1.5	213.307	n/a	-1.0	2.454	columbia_card_task_fmri	n/a	n/a	-1.0	n/a	n/a	n/a	n/a	n/a	n/a	n/a	n/a	ITI	poldrack-single-stim	s628	False	0
215.764	2.585	218.349	1.2968788423115338	draw_card	2.585	columbia_card_task_fmri	15.0	0.8125	89.0	-70.0	0.1875	16.0	1.0	3.0	-0.7861655660619604	2.585	n/a	stim	poldrack-single-stim	s628	False	1
218.352	2.662	221.014	0.2343788423115338	draw_card	2.662	columbia_card_task_fmri	15.0	0.8	89.0	-70.0	0.2	16.0	2.0	3.0	0.0354663379431272	2.662	n/a	stim	poldrack-single-stim	s628	False	1
221.016	3.084	224.1	-0.9799068719741816	draw_card	3.084	columbia_card_task_fmri	15.0	0.7857142857142857	89.0	-70.0	0.2142857142857142	16.0	3.0	3.0	0.911326352708663	3.084	n/a	stim	poldrack-single-stim	s628	False	1
224.102	0.616	224.718	-2.381005773073083	draw_card	0.616	columbia_card_task_fmri	15.0	0.7692307692307692	89.0	-70.0	0.2307692307692307	16.0	4.0	3.0	1.844390482020522	0.616	4.0	stim	poldrack-single-stim	s628	False	0
225.474	1.5	224.723	n/a	-1.0	2.318	columbia_card_task_fmri	n/a	n/a	-1.0	n/a	n/a	n/a	n/a	n/a	n/a	n/a	n/a	ITI	poldrack-single-stim	s628	False	0
227.045	3.816	230.861	8.234378842311534	draw_card	3.816	columbia_card_task_fmri	30.0	0.7	89.0	-50.0	0.3	10.0	1.0	3.0	2.690759618365142	3.816	n/a	stim	poldrack-single-stim	s628	False	1
230.863	1.044	231.907	5.567712175644873	draw_card	1.044	columbia_card_task_fmri	30.0	0.6666666666666667	89.0	-50.0	0.3333333333333333	10.0	2.0	3.0	3.740621893071207	1.044	n/a	stim	poldrack-single-stim	s628	False	1
231.91	6.089	237.999	2.234378842311534	draw_card	6.089	columbia_card_task_fmri	30.0	0.625	89.0	-50.0	0.375	10.0	3.0	3.0	4.756359229901122	6.089	3.0	stim	poldrack-single-stim	s628	False	0
238.755	1.5	238.004	n/a	-1.0	2.318	columbia_card_task_fmri	n/a	n/a	-1.0	n/a	n/a	n/a	n/a	n/a	n/a	n/a	n/a	ITI	poldrack-single-stim	s628	False	0
240.325	1.706	242.031	7.634378842311534	draw_card	1.706	columbia_card_task_fmri	17.0	0.8666666666666667	89.0	-70.0	0.1333333333333333	15.0	1.0	2.0	-4.379274701814637	1.706	n/a	stim	poldrack-single-stim	s628	False	1
242.032	0.432	242.464	6.805807413740107	draw_card	0.432	columbia_card_task_fmri	17.0	0.8571428571428572	89.0	-70.0	0.1428571428571428	15.0	2.0	2.0	-3.512329930849397	0.432	n/a	stim	poldrack-single-stim	s628	False	1
242.466	0.399	242.865	5.849763457696149	draw_card	0.399	columbia_card_task_fmri	17.0	0.8461538461538461	89.0	-70.0	0.1538461538461538	15.0	3.0	2.0	-2.5687442745792204	0.399	n/a	stim	poldrack-single-stim	s628	False	1
242.868	1.776	244.644	4.734378842311536	draw_card	1.776	columbia_card_task_fmri	17.0	0.8333333333333334	89.0	-70.0	0.1666666666666666	15.0	4.0	2.0	-1.5379891015044649	1.776	n/a	stim	poldrack-single-stim	s628	False	1
244.647	3.734	248.381	3.4161970241297137	draw_card	3.734	columbia_card_task_fmri	17.0	0.8181818181818181	89.0	-70.0	0.1818181818181818	15.0	5.0	2.0	-0.4081332489324651	3.734	n/a	stim	poldrack-single-stim	s628	False	1
248.383	1.482	249.865	1.8343788423115357	draw_card	1.482	columbia_card_task_fmri	17.0	0.8	89.0	-70.0	0.2	15.0	6.0	2.0	0.8337838827999917	1.482	6.0	stim	poldrack-single-stim	s628	False	0
250.622	1.5	249.871	n/a	-1.0	2.59	columbia_card_task_fmri	n/a	n/a	-1.0	n/a	n/a	n/a	n/a	n/a	n/a	n/a	n/a	ITI	poldrack-single-stim	s628	False	0
252.464	2.905	255.369	2.859378842311534	draw_card	2.905	columbia_card_task_fmri	7.0	0.9375	89.0	-95.0	0.0625	16.0	1.0	1.0	-9.246708700526582	2.905	n/a	stim	poldrack-single-stim	s628	False	1
255.371	2.115	257.486	2.434378842311534	draw_card	2.115	columbia_card_task_fmri	7.0	0.9333333333333332	89.0	-95.0	0.0666666666666666	16.0	2.0	1.0	-8.49668171161738	2.115	n/a	stim	poldrack-single-stim	s628	False	1
257.488	0.647	258.135	1.948664556597248	draw_card	0.647	columbia_card_task_fmri	7.0	0.9285714285714286	89.0	-95.0	0.0714285714285714	16.0	3.0	1.0	-7.67400232371066	0.647	n/a	stim	poldrack-single-stim	s628	False	1
258.138	1.03	259.168	1.3882249961576871	draw_card	1.03	columbia_card_task_fmri	7.0	0.9230769230769232	89.0	-95.0	0.0769230769230769	16.0	4.0	1.0	-6.766312450499061	1.03	n/a	stim	poldrack-single-stim	s628	False	1
259.17	3.519	262.689	0.7343788423115338	draw_card	3.519	columbia_card_task_fmri	7.0	0.9166666666666666	89.0	-95.0	0.0833333333333333	16.0	5.0	1.0	-5.758154953001046	3.519	n/a	stim	poldrack-single-stim	s628	False	1
262.693	1.164	263.857	-0.0383484304157395	draw_card	1.164	columbia_card_task_fmri	7.0	0.9090909090909092	89.0	-95.0	0.0909090909090909	16.0	6.0	1.0	-4.629929111971858	1.164	n/a	stim	poldrack-single-stim	s628	False	1
263.86	0.506	264.366	-0.9656211576884663	draw_card	0.506	columbia_card_task_fmri	7.0	0.9	89.0	-95.0	0.1	16.0	7.0	1.0	-3.3564054151850837	0.506	n/a	stim	poldrack-single-stim	s628	False	1
264.368	1.897	266.265	-2.0989544910218	draw_card	1.897	columbia_card_task_fmri	7.0	0.8888888888888888	89.0	-95.0	0.1111111111111111	16.0	8.0	1.0	-1.90458793732234	1.897	n/a	stim	poldrack-single-stim	s628	False	1
266.268	5.033	271.301	-3.515621157688466	draw_card	5.033	columbia_card_task_fmri	7.0	0.875	89.0	-95.0	0.125	16.0	9.0	1.0	-0.2306259425875652	5.033	n/a	stim	poldrack-single-stim	s628	False	1
271.304	2.91	274.214	-5.337049729117037	draw_card	2.91	columbia_card_task_fmri	7.0	0.8571428571428572	89.0	-95.0	0.1428571428571428	16.0	10.0	1.0	1.724560328164486	2.91	n/a	stim	poldrack-single-stim	s628	False	1
274.217	1.384	275.601	-7.765621157688464	end_round	1.384	columbia_card_task_fmri	7.0	0.8333333333333334	71.0	-95.0	0.1666666666666666	16.0	11.0	1.0	4.040893448063002	1.384	10.0	stim	poldrack-single-stim	s628	False	1
276.359	1.5	275.608	n/a	-1.0	2.726	columbia_card_task_fmri	n/a	n/a	-1.0	n/a	n/a	n/a	n/a	n/a	n/a	n/a	n/a	ITI	poldrack-single-stim	s628	False	0
278.337	9.416	287.753	4.421878842311534	draw_card	9.416	columbia_card_task_fmri	9.0	0.9375	89.0	-100.0	0.0625	16.0	1.0	1.0	-7.558734110816978	9.416	n/a	stim	poldrack-single-stim	s628	False	1
287.757	1.332	289.089	3.9677121756448672	draw_card	1.332	columbia_card_task_fmri	9.0	0.9333333333333332	89.0	-100.0	0.0666666666666666	16.0	2.0	1.0	-6.756841588074199	1.332	n/a	stim	poldrack-single-stim	s628	False	1
289.092	0.645	289.737	3.448664556597249	draw_card	0.645	columbia_card_task_fmri	9.0	0.9285714285714286	89.0	-100.0	0.0714285714285714	16.0	3.0	1.0	-5.877298378644007	0.645	n/a	stim	poldrack-single-stim	s628	False	1
289.739	0.411	290.15	2.8497634576961497	draw_card	0.411	columbia_card_task_fmri	9.0	0.9230769230769232	89.0	-100.0	0.0769230769230769	16.0	4.0	1.0	-4.906897137294745	0.411	n/a	stim	poldrack-single-stim	s628	False	1
290.153	0.343	290.496	2.1510455089782017	draw_card	0.343	columbia_card_task_fmri	9.0	0.9166666666666666	89.0	-100.0	0.0833333333333333	16.0	5.0	1.0	-3.829118606944317	0.343	n/a	stim	poldrack-single-stim	s628	False	1
290.497	0.415	290.912	1.3252879332206238	draw_card	0.415	columbia_card_task_fmri	9.0	0.9090909090909092	89.0	-100.0	0.0909090909090909	16.0	6.0	1.0	-2.6230153732616763	0.415	n/a	stim	poldrack-single-stim	s628	False	1
290.916	1.491	292.407	0.3343788423115335	draw_card	1.491	columbia_card_task_fmri	9.0	0.9	89.0	-100.0	0.1	16.0	7.0	1.0	-1.2616246873140966	1.491	n/a	stim	poldrack-single-stim	s628	False	1
292.413	0.405	292.818	-0.8767322687995769	draw_card	0.405	columbia_card_task_fmri	9.0	0.8888888888888888	89.0	-100.0	0.1111111111111111	16.0	8.0	1.0	0.2903158896015512	0.405	n/a	stim	poldrack-single-stim	s628	False	1
292.821	1.29	294.111	-2.390621157688466	draw_card	1.29	columbia_card_task_fmri	9.0	0.875	89.0	-100.0	0.125	16.0	9.0	1.0	2.07966884504053	1.29	n/a	stim	poldrack-single-stim	s628	False	1
294.113	0.715	294.828	-4.337049729117036	draw_card	0.715	columbia_card_task_fmri	9.0	0.8571428571428572	89.0	-100.0	0.1428571428571428	16.0	10.0	1.0	4.16957104896737	0.715	10.0	stim	poldrack-single-stim	s628	False	0
295.583	1.5	294.832	n/a	-1.0	2.522	columbia_card_task_fmri	n/a	n/a	-1.0	n/a	n/a	n/a	n/a	n/a	n/a	n/a	n/a	ITI	poldrack-single-stim	s628	False	0
297.358	3.577	300.935	5.359378842311534	draw_card	3.577	columbia_card_task_fmri	15.0	0.875	89.0	-80.0	0.125	16.0	1.0	2.0	-2.540225019973174	3.577	n/a	stim	poldrack-single-stim	s628	False	1
300.939	0.894	301.833	4.567712175644868	draw_card	0.894	columbia_card_task_fmri	15.0	0.8666666666666667	89.0	-80.0	0.1333333333333333	16.0	2.0	2.0	-1.6668776139091293	0.894	n/a	stim	poldrack-single-stim	s628	False	1
301.835	0.354	302.189	3.662950270882965	draw_card	0.354	columbia_card_task_fmri	15.0	0.8571428571428572	89.0	-80.0	0.1428571428571428	16.0	3.0	2.0	-0.7197924078059046	0.354	n/a	stim	poldrack-single-stim	s628	False	1
302.193	0.715	302.908	2.618994226926917	draw_card	0.715	columbia_card_task_fmri	15.0	0.8461538461538461	89.0	-80.0	0.1538461538461538	16.0	4.0	2.0	0.3109919693636556	0.715	n/a	stim	poldrack-single-stim	s628	False	1
302.911	0.809	303.72	1.4010455089782017	draw_card	0.809	columbia_card_task_fmri	15.0	0.8333333333333334	89.0	-80.0	0.1666666666666666	16.0	5.0	2.0	1.4369726805581635	0.809	5.0	stim	poldrack-single-stim	s628	False	0
304.475	1.5	303.724	n/a	-1.0	3.134	columbia_card_task_fmri	n/a	n/a	-1.0	n/a	n/a	n/a	n/a	n/a	n/a	n/a	n/a	ITI	poldrack-single-stim	s628	False	0
306.861	6.266	313.127	7.484378842311534	draw_card	6.266	columbia_card_task_fmri	16.0	0.875	89.0	-70.0	0.125	16.0	1.0	2.0	-5.50841536664948	6.266	1.0	stim	poldrack-single-stim	s628	False	0
313.883	1.5	313.132	n/a	-1.0	2.386	columbia_card_task_fmri	n/a	n/a	-1.0	n/a	n/a	n/a	n/a	n/a	n/a	n/a	n/a	ITI	poldrack-single-stim	s628	False	0
315.522	5.273	320.795	8.796878842311534	draw_card	5.273	columbia_card_task_fmri	30.0	0.6875	89.0	-45.0	0.3125	16.0	1.0	5.0	0.7972895157191005	5.273	1.0	stim	poldrack-single-stim	s628	False	0
321.554	1.5	320.803	n/a	-1.0	2.386	columbia_card_task_fmri	n/a	n/a	-1.0	n/a	n/a	n/a	n/a	n/a	n/a	n/a	n/a	ITI	poldrack-single-stim	s628	False	0
323.194	3.701	326.895	0.5677121756448678	draw_card	3.701	columbia_card_task_fmri	13.0	0.8333333333333334	89.0	-75.0	0.1666666666666666	6.0	1.0	1.0	-1.1661829153097472	3.701	n/a	stim	poldrack-single-stim	s628	False	1
326.898	0.912	327.81	-2.365621157688466	draw_card	0.912	columbia_card_task_fmri	13.0	0.8	89.0	-75.0	0.2	6.0	2.0	1.0	1.2329712457547402	0.912	n/a	stim	poldrack-single-stim	s628	False	1
327.812	0.459	328.271	-6.765621157688466	draw_card	0.459	columbia_card_task_fmri	13.0	0.75	89.0	-75.0	0.25	6.0	3.0	1.0	4.1326975251982745	0.459	n/a	stim	poldrack-single-stim	s628	False	1
328.274	3.256	331.53	-14.098954491021798	end_round	3.256	columbia_card_task_fmri	13.0	0.6666666666666667	71.0	-75.0	0.3333333333333333	6.0	4.0	1.0	7.50585508964005	3.256	3.0	stim	poldrack-single-stim	s628	False	1
332.284	1.5	331.533	n/a	-1.0	2.318	columbia_card_task_fmri	n/a	n/a	-1.0	n/a	n/a	n/a	n/a	n/a	n/a	n/a	n/a	ITI	poldrack-single-stim	s628	False	0
333.855	2.472	336.327	2.234378842311536	draw_card	2.472	columbia_card_task_fmri	14.0	0.8333333333333334	89.0	-70.0	0.1666666666666666	6.0	1.0	1.0	-2.6532835768823304	2.472	n/a	stim	poldrack-single-stim	s628	False	1
336.33	0.355	336.685	-0.5656211576884651	draw_card	0.355	columbia_card_task_fmri	14.0	0.8	89.0	-70.0	0.2	6.0	2.0	1.0	-0.3636624883625714	0.355	n/a	stim	poldrack-single-stim	s628	False	1
336.687	0.334	337.021	-4.765621157688466	draw_card	0.334	columbia_card_task_fmri	14.0	0.75	89.0	-70.0	0.25	6.0	3.0	1.0	2.403757780937504	0.334	3.0	stim	poldrack-single-stim	s628	False	0
337.773	1.5	337.022	n/a	-1.0	2.318	columbia_card_task_fmri	n/a	n/a	-1.0	n/a	n/a	n/a	n/a	n/a	n/a	n/a	n/a	ITI	poldrack-single-stim	s628	False	0
339.343	1.942	341.285	2.234378842311536	draw_card	1.942	columbia_card_task_fmri	16.0	0.8333333333333334	89.0	-80.0	0.1666666666666666	6.0	1.0	1.0	1.8089184029957932	1.942	n/a	stim	poldrack-single-stim	s628	False	1
341.288	0.29	341.578	-0.9656211576884656	draw_card	0.29	columbia_card_task_fmri	16.0	0.8	89.0	-80.0	0.2	6.0	2.0	1.0	4.427077984771124	0.29	n/a	stim	poldrack-single-stim	s628	False	1
341.581	0.341	341.922	-5.765621157688466	draw_card	0.341	columbia_card_task_fmri	16.0	0.75	89.0	-80.0	0.25	6.0	3.0	1.0	7.591352968172558	0.341	3.0	stim	poldrack-single-stim	s628	False	0
342.676	1.5	341.925	n/a	-1.0	2.862	columbia_card_task_fmri	n/a	n/a	-1.0	n/a	n/a	n/a	n/a	n/a	n/a	n/a	n/a	ITI	poldrack-single-stim	s628	False	0
344.791	4.291	349.082	4.734378842311536	draw_card	4.291	columbia_card_task_fmri	17.0	0.8333333333333334	89.0	-70.0	0.1666666666666666	6.0	1.0	1.0	-1.5379891015044649	4.291	n/a	stim	poldrack-single-stim	s628	False	1
349.085	0.355	349.44	1.8343788423115357	draw_card	0.355	columbia_card_task_fmri	17.0	0.8	89.0	-70.0	0.2	6.0	2.0	1.0	0.8337838827999917	0.355	n/a	stim	poldrack-single-stim	s628	False	1
349.444	0.299	349.743	-2.515621157688466	draw_card	0.299	columbia_card_task_fmri	17.0	0.75	89.0	-70.0	0.25	6.0	3.0	1.0	3.7004358407243103	0.299	n/a	stim	poldrack-single-stim	s628	False	1
349.745	0.912	350.657	-9.765621157688464	end_round	0.912	columbia_card_task_fmri	17.0	0.6666666666666667	71.0	-70.0	0.3333333333333333	6.0	4.0	1.0	7.03514070279963	0.912	3.0	stim	poldrack-single-stim	s628	False	1
351.413	1.5	350.662	n/a	-1.0	2.726	columbia_card_task_fmri	n/a	n/a	-1.0	n/a	n/a	n/a	n/a	n/a	n/a	n/a	n/a	ITI	poldrack-single-stim	s628	False	0
353.392	3.08	356.472	4.734378842311534	draw_card	3.08	columbia_card_task_fmri	25.0	0.75	89.0	-65.0	0.25	8.0	1.0	2.0	4.997270836569015	3.08	n/a	stim	poldrack-single-stim	s628	False	1
356.475	3.103	359.578	1.520093128025822	draw_card	3.103	columbia_card_task_fmri	25.0	0.7142857142857143	89.0	-65.0	0.2857142857142857	8.0	2.0	2.0	6.681332285344567	3.103	n/a	stim	poldrack-single-stim	s628	False	1
359.581	1.047	360.628	-2.7656211576884626	end_round	1.047	columbia_card_task_fmri	25.0	0.6666666666666667	71.0	-65.0	0.3333333333333333	8.0	3.0	2.0	8.447329774971557	1.047	2.0	stim	poldrack-single-stim	s628	False	1
361.382	1.5	360.631	n/a	-1.0	2.25	columbia_card_task_fmri	n/a	n/a	-1.0	n/a	n/a	n/a	n/a	n/a	n/a	n/a	n/a	ITI	poldrack-single-stim	s628	False	0
362.885	2.776	365.661	4.734378842311534	draw_card	2.776	columbia_card_task_fmri	30.0	0.75	89.0	-80.0	0.25	8.0	1.0	2.0	13.64590260100507	2.776	n/a	stim	poldrack-single-stim	s628	False	1
365.665	0.825	366.49	0.8058074137401103	draw_card	0.825	columbia_card_task_fmri	30.0	0.7142857142857143	89.0	-80.0	0.2857142857142857	8.0	2.0	2.0	15.70526935109023	0.825	2.0	stim	poldrack-single-stim	s628	False	0
367.245	1.5	366.494	n/a	-1.0	2.318	columbia_card_task_fmri	n/a	n/a	-1.0	n/a	n/a	n/a	n/a	n/a	n/a	n/a	n/a	ITI	poldrack-single-stim	s628	False	0
368.818	2.596	371.414	4.434378842311535	draw_card	2.596	columbia_card_task_fmri	13.0	0.9	89.0	-95.0	0.1	10.0	1.0	1.0	-1.5609203502756088	2.596	n/a	stim	poldrack-single-stim	s628	False	1
371.418	0.577	371.995	3.234378842311534	draw_card	0.577	columbia_card_task_fmri	13.0	0.8888888888888888	89.0	-95.0	0.1111111111111111	10.0	2.0	1.0	-0.0232812248471034	0.577	n/a	stim	poldrack-single-stim	s628	False	1
371.996	0.362	372.358	1.7343788423115338	draw_card	0.362	columbia_card_task_fmri	13.0	0.875	89.0	-95.0	0.125	10.0	3.0	1.0	1.7495892442202106	0.362	n/a	stim	poldrack-single-stim	s628	False	1
372.362	0.905	373.267	-0.1941925862598932	draw_card	0.905	columbia_card_task_fmri	13.0	0.8571428571428572	89.0	-95.0	0.1428571428571428	10.0	4.0	1.0	3.8202483497718376	0.905	n/a	stim	poldrack-single-stim	s628	False	1
373.27	1.077	374.347	-2.7656211576884644	draw_card	1.077	columbia_card_task_fmri	13.0	0.8333333333333334	89.0	-95.0	0.1666666666666666	10.0	5.0	1.0	6.273322151253311	1.077	5.0	stim	poldrack-single-stim	s628	False	0
375.106	1.5	374.355	n/a	-1.0	2.454	columbia_card_task_fmri	n/a	n/a	-1.0	n/a	n/a	n/a	n/a	n/a	n/a	n/a	n/a	ITI	poldrack-single-stim	s628	False	0
376.813	1.955	378.768	5.8343788423115335	draw_card	1.955	columbia_card_task_fmri	14.0	0.9	89.0	-90.0	0.1	10.0	1.0	1.0	-2.757968057004448	1.955	n/a	stim	poldrack-single-stim	s628	False	1
378.771	0.391	379.162	4.678823286755977	draw_card	0.391	columbia_card_task_fmri	14.0	0.8888888888888888	89.0	-90.0	0.1111111111111111	10.0	2.0	1.0	-1.2775407820136095	0.391	n/a	stim	poldrack-single-stim	s628	False	1
379.164	0.407	379.571	3.234378842311534	draw_card	0.407	columbia_card_task_fmri	14.0	0.875	89.0	-90.0	0.125	10.0	3.0	1.0	0.4293934087890179	0.407	n/a	stim	poldrack-single-stim	s628	False	1
379.575	4.367	383.942	1.377235985168678	draw_card	4.367	columbia_card_task_fmri	14.0	0.8571428571428572	89.0	-90.0	0.1428571428571428	10.0	4.0	1.0	2.4230734666266613	4.367	n/a	stim	poldrack-single-stim	s628	False	1
383.944	2.348	386.292	-1.0989544910217983	draw_card	2.348	columbia_card_task_fmri	14.0	0.8333333333333334	89.0	-90.0	0.1666666666666666	10.0	5.0	1.0	4.7849898070339165	2.348	5.0	stim	poldrack-single-stim	s628	False	0
387.048	1.5	386.297	n/a	-1.0	2.522	columbia_card_task_fmri	n/a	n/a	-1.0	n/a	n/a	n/a	n/a	n/a	n/a	n/a	n/a	ITI	poldrack-single-stim	s628	False	0
388.824	1.911	390.735	1.0343788423115343	draw_card	1.911	columbia_card_task_fmri	16.0	0.8	89.0	-70.0	0.2	10.0	1.0	2.0	0.4346153594900386	1.911	1.0	stim	poldrack-single-stim	s628	False	0
391.492	1.5	390.741	n/a	-1.0	2.318	columbia_card_task_fmri	n/a	n/a	-1.0	n/a	n/a	n/a	n/a	n/a	n/a	n/a	n/a	ITI	poldrack-single-stim	s628	False	0
393.064	2.903	395.967	0.3177121756448677	draw_card	2.903	columbia_card_task_fmri	7.0	0.9166666666666666	89.0	-100.0	0.0833333333333333	12.0	1.0	1.0	-4.380347110238716	2.903	n/a	stim	poldrack-single-stim	s628	False	1
395.972	0.604	396.576	-0.4928938849611946	draw_card	0.604	columbia_card_task_fmri	7.0	0.9090909090909092	89.0	-100.0	0.0909090909090909	12.0	2.0	1.0	-3.1964917033047517	0.604	n/a	stim	poldrack-single-stim	s628	False	1
396.579	0.574	397.153	-1.4656211576884663	end_round	0.574	columbia_card_task_fmri	7.0	0.9	71.0	-100.0	0.1	12.0	3.0	1.0	-1.8602028952513263	0.574	2.0	stim	poldrack-single-stim	s628	False	1
397.909	1.5	397.158	n/a	-1.0	2.522	columbia_card_task_fmri	n/a	n/a	-1.0	n/a	n/a	n/a	n/a	n/a	n/a	n/a	n/a	ITI	poldrack-single-stim	s628	False	0
399.684	1.802	401.486	0.5677121756448695	draw_card	1.802	columbia_card_task_fmri	14.0	0.8333333333333334	89.0	-80.0	0.1666666666666666	12.0	1.0	2.0	1.065042491547416	1.802	n/a	stim	poldrack-single-stim	s628	False	1
401.491	0.39	401.881	-0.8565302485975597	draw_card	0.39	columbia_card_task_fmri	14.0	0.8181818181818181	89.0	-80.0	0.1818181818181818	12.0	2.0	2.0	2.286206271872153	0.39	n/a	stim	poldrack-single-stim	s628	False	1
401.884	2.856	404.74	-2.565621157688465	end_round	2.856	columbia_card_task_fmri	14.0	0.8	71.0	-80.0	0.2	12.0	3.0	2.0	3.6284575107849975	2.856	2.0	stim	poldrack-single-stim	s628	False	1
405.494	1.5	404.743	n/a	-1.0	2.998	columbia_card_task_fmri	n/a	n/a	-1.0	n/a	n/a	n/a	n/a	n/a	n/a	n/a	n/a	ITI	poldrack-single-stim	s628	False	0
407.746	2.338	410.084	2.234378842311534	draw_card	2.338	columbia_card_task_fmri	15.0	0.8333333333333334	89.0	-75.0	0.1666666666666666	12.0	1.0	2.0	-0.4225126185652286	2.338	n/a	stim	poldrack-single-stim	s628	False	1
410.087	1.252	411.339	0.8707424786751687	draw_card	1.252	columbia_card_task_fmri	15.0	0.8181818181818181	89.0	-75.0	0.1818181818181818	12.0	2.0	2.0	0.7464788183868478	1.252	n/a	stim	poldrack-single-stim	s628	False	1
411.343	0.523	411.866	-0.7656211576884662	draw_card	0.523	columbia_card_task_fmri	15.0	0.8	89.0	-75.0	0.2	12.0	3.0	2.0	2.031399988534368	0.523	n/a	stim	poldrack-single-stim	s628	False	1
411.869	0.431	412.3	-2.7656211576884644	draw_card	0.431	columbia_card_task_fmri	15.0	0.7777777777777778	89.0	-75.0	0.2222222222222222	12.0	4.0	2.0	3.4453559713913293	0.431	n/a	stim	poldrack-single-stim	s628	False	1
412.305	1.472	413.777	-5.265621157688466	draw_card	1.472	columbia_card_task_fmri	15.0	0.75	89.0	-75.0	0.25	12.0	5.0	2.0	4.997270836569015	1.472	n/a	stim	poldrack-single-stim	s628	False	1
413.78	3.874	417.654	-8.479906871974178	end_round	3.874	columbia_card_task_fmri	15.0	0.7142857142857143	71.0	-75.0	0.2857142857142857	12.0	6.0	2.0	6.681332285344567	3.874	5.0	stim	poldrack-single-stim	s628	False	1
418.41	1.5	417.659	n/a	-1.0	2.318	columbia_card_task_fmri	n/a	n/a	-1.0	n/a	n/a	n/a	n/a	n/a	n/a	n/a	n/a	ITI	poldrack-single-stim	s628	False	0
419.981	3.242	423.223	1.2343788423115338	draw_card	3.242	columbia_card_task_fmri	15.0	0.8	89.0	-65.0	0.2	15.0	1.0	3.0	-1.9599607650071744	3.242	1.0	stim	poldrack-single-stim	s628	False	0
423.982	1.5	423.231	n/a	-1.0	2.25	columbia_card_task_fmri	n/a	n/a	-1.0	n/a	n/a	n/a	n/a	n/a	n/a	n/a	n/a	ITI	poldrack-single-stim	s628	False	0
425.486	2.61	428.096	0.4843788423115338	draw_card	2.61	columbia_card_task_fmri	14.0	0.8125	89.0	-70.0	0.1875	16.0	1.0	3.0	-1.1755852910312896	2.61	n/a	stim	poldrack-single-stim	s628	False	1
428.099	1.588	429.687	-0.5656211576884651	draw_card	1.588	columbia_card_task_fmri	14.0	0.8	89.0	-70.0	0.2	16.0	2.0	3.0	-0.3636624883625714	1.588	n/a	stim	poldrack-single-stim	s628	False	1
429.691	4.387	434.078	-1.7656211576884662	draw_card	4.387	columbia_card_task_fmri	14.0	0.7857142857142857	89.0	-70.0	0.2142857142857142	16.0	3.0	3.0	0.501849837693733	4.387	n/a	stim	poldrack-single-stim	s628	False	1
434.081	10.64	444.721	-3.150236542303851	draw_card	10.64	columbia_card_task_fmri	14.0	0.7692307692307692	89.0	-70.0	0.2307692307692307	16.0	4.0	3.0	1.4238927842015272	10.64	n/a	stim	poldrack-single-stim	s628	False	1
444.725	1.767	446.492	-4.765621157688466	draw_card	1.767	columbia_card_task_fmri	14.0	0.75	89.0	-70.0	0.25	16.0	5.0	3.0	2.403757780937504	1.767	n/a	stim	poldrack-single-stim	s628	False	1
446.496	8.332	454.828	-6.674712066779375	draw_card	8.332	columbia_card_task_fmri	14.0	0.7272727272727273	89.0	-70.0	0.2727272727272727	16.0	6.0	3.0	3.439181903013925	8.332	n/a	stim	poldrack-single-stim	s628	False	1
454.831	1.229	456.06	-8.965621157688467	end_round	1.229	columbia_card_task_fmri	14.0	0.7	71.0	-70.0	0.3	16.0	7.0	3.0	4.520556094999307	1.229	6.0	stim	poldrack-single-stim	s628	False	1
456.814	1.5	456.063	n/a	-1.0	2.454	columbia_card_task_fmri	n/a	n/a	-1.0	n/a	n/a	n/a	n/a	n/a	n/a	n/a	n/a	ITI	poldrack-single-stim	s628	False	0
458.521	5.661	464.182	0.4218788423115338	draw_card	5.661	columbia_card_task_fmri	11.0	0.6875	89.0	-30.0	0.3125	16.0	1.0	5.0	-14.902962619439457	5.661	1.0	stim	poldrack-single-stim	s628	False	0
464.936	1.5	464.185	n/a	-1.0	2.318	columbia_card_task_fmri	n/a	n/a	-1.0	n/a	n/a	n/a	n/a	n/a	n/a	n/a	n/a	ITI	poldrack-single-stim	s628	False	0
466.506	5.7	472.206	5.234378842311534	draw_card	5.7	columbia_card_task_fmri	15.0	0.8666666666666667	89.0	-75.0	0.1333333333333333	15.0	1.0	2.0	-3.3622727099124923	5.7	1.0	stim	poldrack-single-stim	s628	False	0
472.962	1.5	472.211	n/a	-1.0	2.318	columbia_card_task_fmri	n/a	n/a	-1.0	n/a	n/a	n/a	n/a	n/a	n/a	n/a	n/a	ITI	poldrack-single-stim	s628	False	0
474.532	5.779	480.311	6.967712175644868	draw_card	5.779	columbia_card_task_fmri	17.0	0.8666666666666667	89.0	-75.0	0.1333333333333333	15.0	1.0	2.0	-2.6841702605225564	5.779	n/a	stim	poldrack-single-stim	s628	False	1
480.315	1.445	481.76	6.091521699454393	draw_card	1.445	columbia_card_task_fmri	17.0	0.8571428571428572	89.0	-75.0	0.1428571428571428	15.0	2.0	2.0	-1.7671336739707757	1.445	n/a	stim	poldrack-single-stim	s628	False	1
481.764	0.494	482.258	5.0805326884653805	draw_card	0.494	columbia_card_task_fmri	17.0	0.8461538461538461	89.0	-75.0	0.1538461538461538	15.0	3.0	2.0	-0.7690446657809389	0.494	n/a	stim	poldrack-single-stim	s628	False	1
482.261	4.884	487.145	3.9010455089782017	draw_card	4.884	columbia_card_task_fmri	17.0	0.8333333333333334	89.0	-75.0	0.1666666666666666	15.0	4.0	2.0	0.3212307315391314	4.884	n/a	stim	poldrack-single-stim	s628	False	1
487.147	0.5	487.647	2.507106115038805	draw_card	0.5	columbia_card_task_fmri	17.0	0.8181818181818181	89.0	-75.0	0.1818181818181818	15.0	5.0	2.0	1.516309480616307	0.5	n/a	stim	poldrack-single-stim	s628	False	1
487.652	0.527	488.179	0.8343788423115353	draw_card	0.527	columbia_card_task_fmri	17.0	0.8	89.0	-75.0	0.2	15.0	6.0	2.0	2.8298968543666945	0.527	n/a	stim	poldrack-single-stim	s628	False	1
488.182	14.047	502.229	-1.2100656021329073	draw_card	14.047	columbia_card_task_fmri	17.0	0.7777777777777778	89.0	-75.0	0.2222222222222222	15.0	7.0	2.0	4.275388861740069	14.047	n/a	stim	poldrack-single-stim	s628	False	1
502.233	3.841	506.074	-3.765621157688466	end_round	3.841	columbia_card_task_fmri	17.0	0.75	71.0	-75.0	0.25	15.0	8.0	2.0	5.86190713052374	3.841	7.0	stim	poldrack-single-stim	s628	False	1
506.83	1.5	506.079	n/a	-1.0	2.59	columbia_card_task_fmri	n/a	n/a	-1.0	n/a	n/a	n/a	n/a	n/a	n/a	n/a	n/a	ITI	poldrack-single-stim	s628	False	0
508.672	6.235	514.907	2.546878842311534	draw_card	6.235	columbia_card_task_fmri	2.0	0.9375	89.0	-25.0	0.0625	16.0	1.0	1.0	-27.130826341724937	6.235	n/a	stim	poldrack-single-stim	s628	False	1
514.911	10.464	525.375	2.434378842311534	draw_card	10.464	columbia_card_task_fmri	2.0	0.9333333333333332	89.0	-25.0	0.0666666666666666	16.0	2.0	1.0	-26.94192698721546	10.464	n/a	stim	poldrack-single-stim	s628	False	1
525.379	0.742	526.121	2.305807413740105	end_round	0.742	columbia_card_task_fmri	2.0	0.9285714285714286	71.0	-25.0	0.0714285714285714	16.0	3.0	1.0	-26.73414171646285	0.742	2.0	stim	poldrack-single-stim	s628	False	1
526.877	1.5	526.126	n/a	-1.0	2.25	columbia_card_task_fmri	n/a	n/a	-1.0	n/a	n/a	n/a	n/a	n/a	n/a	n/a	n/a	ITI	poldrack-single-stim	s628	False	0
528.381	10.019	538.4	4.734378842311534	draw_card	10.019	columbia_card_task_fmri	9.0	0.9375	89.0	-95.0	0.0625	16.0	1.0	1.0	-8.764518406835997	10.019	n/a	stim	poldrack-single-stim	s628	False	1
538.402	0.517	538.919	4.301045508978201	draw_card	0.517	columbia_card_task_fmri	9.0	0.9333333333333332	89.0	-95.0	0.0666666666666666	16.0	2.0	1.0	-7.999670142357797	0.517	n/a	stim	poldrack-single-stim	s628	False	1
538.923	0.745	539.668	3.805807413740106	draw_card	0.745	columbia_card_task_fmri	9.0	0.9285714285714286	89.0	-95.0	0.0714285714285714	16.0	3.0	1.0	-7.160741312986321	0.745	n/a	stim	poldrack-single-stim	s628	False	1
539.672	0.424	540.096	3.234378842311534	draw_card	0.424	columbia_card_task_fmri	9.0	0.9230769230769232	89.0	-95.0	0.0769230769230769	16.0	4.0	1.0	-6.235131179269832	0.424	n/a	stim	poldrack-single-stim	s628	False	1
540.099	0.381	540.48	2.567712175644868	draw_card	0.381	columbia_card_task_fmri	9.0	0.9166666666666666	89.0	-95.0	0.0833333333333333	16.0	5.0	1.0	-5.207079130977608	0.381	n/a	stim	poldrack-single-stim	s628	False	1
540.483	0.498	540.981	1.7798333877660788	draw_card	0.498	columbia_card_task_fmri	9.0	0.9090909090909092	89.0	-95.0	0.0909090909090909	16.0	6.0	1.0	-4.056599668476824	0.498	n/a	stim	poldrack-single-stim	s628	False	1
540.984	0.493	541.477	0.8343788423115335	draw_card	0.493	columbia_card_task_fmri	9.0	0.9	89.0	-95.0	0.1	16.0	7.0	1.0	-2.757968057004448	0.493	7.0	stim	poldrack-single-stim	s628	False	0
542.232	1.5	541.481	n/a	-1.0	2.25	columbia_card_task_fmri	n/a	n/a	-1.0	n/a	n/a	n/a	n/a	n/a	n/a	n/a	n/a	ITI	poldrack-single-stim	s628	False	0
543.736	1.752	545.488	6.296878842311534	draw_card	1.752	columbia_card_task_fmri	11.0	0.9375	89.0	-100.0	0.0625	16.0	1.0	1.0	-7.076306903406188	1.752	n/a	stim	poldrack-single-stim	s628	False	1
545.492	0.366	545.858	5.834378842311534	draw_card	0.366	columbia_card_task_fmri	11.0	0.9333333333333332	89.0	-100.0	0.0666666666666666	16.0	2.0	1.0	-6.259599966085322	0.366	2.0	stim	poldrack-single-stim	s628	False	0
546.617	1.5	545.866	n/a	-1.0	2.522	columbia_card_task_fmri	n/a	n/a	-1.0	n/a	n/a	n/a	n/a	n/a	n/a	n/a	n/a	ITI	poldrack-single-stim	s628	False	0
548.391	2.323	550.714	6.859378842311534	draw_card	2.323	columbia_card_task_fmri	16.0	0.875	89.0	-75.0	0.125	16.0	1.0	2.0	-3.859622088345919	2.323	n/a	stim	poldrack-single-stim	s628	False	1
550.718	0.435	551.153	6.101045508978201	draw_card	0.435	columbia_card_task_fmri	16.0	0.8666666666666667	89.0	-75.0	0.1333333333333333	16.0	2.0	2.0	-3.023231155206606	0.435	2.0	stim	poldrack-single-stim	s628	False	0
551.906	1.5	551.155	n/a	-1.0	2.454	columbia_card_task_fmri	n/a	n/a	-1.0	n/a	n/a	n/a	n/a	n/a	n/a	n/a	n/a	ITI	poldrack-single-stim	s628	False	0
553.616	3.66	557.276	7.109378842311534	draw_card	3.66	columbia_card_task_fmri	17.0	0.875	89.0	-80.0	0.125	16.0	1.0	2.0	-1.8804193015621848	3.66	n/a	stim	poldrack-single-stim	s628	False	1
557.279	1.327	558.606	6.301045508978202	draw_card	1.327	columbia_card_task_fmri	17.0	0.8666666666666667	89.0	-80.0	0.1333333333333333	16.0	2.0	2.0	-0.9885965220534416	1.327	n/a	stim	poldrack-single-stim	s628	False	1
558.611	2.491	561.102	5.37723598516868	draw_card	2.491	columbia_card_task_fmri	17.0	0.8571428571428572	89.0	-80.0	0.1428571428571428	16.0	3.0	2.0	-0.0214813246599163	2.491	n/a	stim	poldrack-single-stim	s628	False	1
561.107	0.694	561.801	4.3113019192346105	draw_card	0.694	columbia_card_task_fmri	17.0	0.8461538461538461	89.0	-80.0	0.1538461538461538	16.0	4.0	2.0	1.0310974791298193	0.694	n/a	stim	poldrack-single-stim	s628	False	1
561.806	3.781	565.587	3.067712175644869	draw_card	3.781	columbia_card_task_fmri	17.0	0.8333333333333334	89.0	-80.0	0.1666666666666666	16.0	5.0	2.0	2.180879180302256	3.781	5.0	stim	poldrack-single-stim	s628	False	0
566.346	1.5	565.595	n/a	-1.0	2.25	columbia_card_task_fmri	n/a	n/a	-1.0	n/a	n/a	n/a	n/a	n/a	n/a	n/a	n/a	ITI	poldrack-single-stim	s628	False	0
578.857	8.998	587.855	1.4010455089782017	draw_card	8.998	columbia_card_task_fmri	13.0	0.8333333333333334	89.0	-70.0	0.1666666666666666	6.0	1.0	1.0	-3.0250045618732564	8.998	n/a	stim	poldrack-single-stim	s628	False	1
587.859	0.554	588.413	-1.3656211576884658	draw_card	0.554	columbia_card_task_fmri	13.0	0.8	89.0	-70.0	0.2	6.0	2.0	1.0	-0.7627703927122909	0.554	2.0	stim	poldrack-single-stim	s628	False	0
589.168	1.5	588.417	n/a	-1.0	2.454	columbia_card_task_fmri	n/a	n/a	-1.0	n/a	n/a	n/a	n/a	n/a	n/a	n/a	n/a	ITI	poldrack-single-stim	s628	False	0
590.874	2.404	593.278	1.4010455089782017	draw_card	2.404	columbia_card_task_fmri	15.0	0.8333333333333334	89.0	-80.0	0.1666666666666666	6.0	1.0	1.0	1.4369726805581635	2.404	n/a	stim	poldrack-single-stim	s628	False	1
593.282	0.872	594.154	-1.7656211576884662	draw_card	0.872	columbia_card_task_fmri	15.0	0.8	89.0	-80.0	0.2	6.0	2.0	1.0	4.027760505883855	0.872	2.0	stim	poldrack-single-stim	s628	False	0
594.911	1.5	594.16	n/a	-1.0	2.454	columbia_card_task_fmri	n/a	n/a	-1.0	n/a	n/a	n/a	n/a	n/a	n/a	n/a	n/a	ITI	poldrack-single-stim	s628	False	0
596.618	2.088	598.706	3.067712175644868	draw_card	2.088	columbia_card_task_fmri	16.0	0.8333333333333334	89.0	-75.0	0.1666666666666666	6.0	1.0	1.0	-0.0506497754511841	2.088	n/a	stim	poldrack-single-stim	s628	False	1
598.711	0.903	599.614	0.0343788423115345	draw_card	0.903	columbia_card_task_fmri	16.0	0.8	89.0	-75.0	0.2	6.0	2.0	1.0	2.4306401857329973	0.903	2.0	stim	poldrack-single-stim	s628	False	0
600.368	1.5	599.617	n/a	-1.0	2.522	columbia_card_task_fmri	n/a	n/a	-1.0	n/a	n/a	n/a	n/a	n/a	n/a	n/a	n/a	ITI	poldrack-single-stim	s628	False	0
602.144	2.743	604.887	4.234378842311534	draw_card	2.743	columbia_card_task_fmri	21.0	0.75	89.0	-55.0	0.25	8.0	1.0	2.0	-1.0531423889371825	2.743	n/a	stim	poldrack-single-stim	s628	False	1
604.891	0.323	605.214	1.5200931280258203	draw_card	0.323	columbia_card_task_fmri	21.0	0.7142857142857143	89.0	-55.0	0.2857142857142857	8.0	2.0	2.0	0.3680561967217031	0.323	n/a	stim	poldrack-single-stim	s628	False	1
605.217	0.65	605.867	-2.0989544910217965	end_round	0.65	columbia_card_task_fmri	21.0	0.6666666666666667	71.0	-55.0	0.3333333333333333	8.0	3.0	2.0	1.858477921123864	0.65	2.0	stim	poldrack-single-stim	s628	False	1
606.626	1.5	605.875	n/a	-1.0	2.454	columbia_card_task_fmri	n/a	n/a	-1.0	n/a	n/a	n/a	n/a	n/a	n/a	n/a	n/a	ITI	poldrack-single-stim	s628	False	0
608.335	5.165	613.5	5.484378842311534	draw_card	5.165	columbia_card_task_fmri	26.0	0.75	89.0	-65.0	0.25	8.0	1.0	2.0	5.429581369428028	5.165	1.0	stim	poldrack-single-stim	s628	False	0
614.259	1.5	613.508	n/a	-1.0	2.658	columbia_card_task_fmri	n/a	n/a	-1.0	n/a	n/a	n/a	n/a	n/a	n/a	n/a	n/a	ITI	poldrack-single-stim	s628	False	0
616.17	8.73	624.9	0.5677121756448678	draw_card	8.73	columbia_card_task_fmri	15.0	0.7777777777777778	89.0	-60.0	0.2222222222222222	9.0	1.0	2.0	-2.777439934184983	8.73	n/a	stim	poldrack-single-stim	s628	False	1
624.905	0.596	625.501	-1.5156211576884662	draw_card	0.596	columbia_card_task_fmri	15.0	0.75	89.0	-60.0	0.25	9.0	2.0	2.0	-1.4851472550923148	0.596	n/a	stim	poldrack-single-stim	s628	False	1
625.504	0.301	625.805	-4.194192586259893	draw_card	0.301	columbia_card_task_fmri	15.0	0.7142857142857143	89.0	-60.0	0.2857142857142857	9.0	3.0	2.0	-0.0827314556720608	0.301	n/a	stim	poldrack-single-stim	s628	False	1
625.807	0.495	626.302	-7.765621157688464	end_round	0.495	columbia_card_task_fmri	15.0	0.6666666666666667	71.0	-60.0	0.3333333333333333	9.0	4.0	2.0	1.387999661520361	0.495	3.0	stim	poldrack-single-stim	s628	False	1
627.059	1.5	626.308	n/a	-1.0	2.386	columbia_card_task_fmri	n/a	n/a	-1.0	n/a	n/a	n/a	n/a	n/a	n/a	n/a	n/a	ITI	poldrack-single-stim	s628	False	0
628.701	7.693	636.394	4.934378842311535	draw_card	7.693	columbia_card_task_fmri	13.0	0.9	89.0	-90.0	0.1	10.0	1.0	1.0	-3.057194292127221	7.693	n/a	stim	poldrack-single-stim	s628	False	1
636.399	0.395	636.794	3.789934397867089	draw_card	0.395	columbia_card_task_fmri	13.0	0.8888888888888888	89.0	-90.0	0.1111111111111111	10.0	2.0	1.0	-1.591071577610606	0.395	n/a	stim	poldrack-single-stim	s628	False	1
636.797	0.295	637.092	2.359378842311534	draw_card	0.295	columbia_card_task_fmri	13.0	0.875	89.0	-90.0	0.125	10.0	3.0	1.0	0.09937686942677	0.295	n/a	stim	poldrack-single-stim	s628	False	1
637.095	0.351	637.446	0.5200931280258221	draw_card	0.351	columbia_card_task_fmri	13.0	0.8571428571428572	89.0	-90.0	0.1428571428571428	10.0	4.0	1.0	2.0738104060283007	0.351	n/a	stim	poldrack-single-stim	s628	False	1
637.45	0.641	638.091	-1.932287824355132	end_round	0.641	columbia_card_task_fmri	13.0	0.8333333333333334	71.0	-90.0	0.1666666666666666	10.0	5.0	1.0	4.41293552831398	0.641	4.0	stim	poldrack-single-stim	s628	False	1
638.849	1.5	638.098	n/a	-1.0	2.522	columbia_card_task_fmri	n/a	n/a	-1.0	n/a	n/a	n/a	n/a	n/a	n/a	n/a	n/a	ITI	poldrack-single-stim	s628	False	0
640.625	4.679	645.304	6.234378842311534	draw_card	4.679	columbia_card_task_fmri	15.0	0.9	89.0	-95.0	0.1	10.0	1.0	1.0	-0.9623162624747366	4.679	n/a	stim	poldrack-single-stim	s628	False	1
645.308	3.726	649.034	5.012156620089311	draw_card	3.726	columbia_card_task_fmri	15.0	0.8888888888888888	89.0	-95.0	0.1111111111111111	10.0	2.0	1.0	0.6039251940058392	3.726	n/a	stim	poldrack-single-stim	s628	False	1
649.038	0.498	649.536	3.484378842311534	draw_card	0.498	columbia_card_task_fmri	15.0	0.875	89.0	-95.0	0.125	10.0	3.0	1.0	2.409760036659904	0.498	n/a	stim	poldrack-single-stim	s628	False	1
649.541	0.358	649.899	1.5200931280258203	draw_card	0.358	columbia_card_task_fmri	15.0	0.8571428571428572	89.0	-95.0	0.1428571428571428	10.0	4.0	1.0	4.518904709438836	0.358	n/a	stim	poldrack-single-stim	s628	False	1
649.903	0.356	650.259	-1.0989544910217983	draw_card	0.356	columbia_card_task_fmri	15.0	0.8333333333333334	89.0	-95.0	0.1666666666666666	10.0	5.0	1.0	7.017553074800752	0.356	n/a	stim	poldrack-single-stim	s628	False	1
650.262	0.708	650.97	-4.765621157688466	end_round	0.708	columbia_card_task_fmri	15.0	0.8	71.0	-95.0	0.2	10.0	6.0	1.0	10.018822916206725	0.708	5.0	stim	poldrack-single-stim	s628	False	1
651.726	1.5	650.975	n/a	-1.0	2.59	columbia_card_task_fmri	n/a	n/a	-1.0	n/a	n/a	n/a	n/a	n/a	n/a	n/a	n/a	ITI	poldrack-single-stim	s628	False	0
653.569	4.995	658.564	2.0343788423115345	draw_card	4.995	columbia_card_task_fmri	16.0	0.8	89.0	-65.0	0.2	10.0	1.0	2.0	-1.5609203502756088	4.995	n/a	stim	poldrack-single-stim	s628	False	1
658.57	0.317	658.887	0.2343788423115356	draw_card	0.317	columbia_card_task_fmri	16.0	0.7777777777777778	89.0	-65.0	0.2222222222222222	10.0	2.0	2.0	-0.2889107405072835	0.317	n/a	stim	poldrack-single-stim	s628	False	1
658.891	0.357	659.248	-2.015621157688466	draw_card	0.357	columbia_card_task_fmri	16.0	0.75	89.0	-65.0	0.25	10.0	3.0	2.0	1.1072540276617175	0.357	n/a	stim	poldrack-single-stim	s628	False	1
659.252	0.436	659.688	-4.908478300545607	end_round	0.436	columbia_card_task_fmri	16.0	0.7142857142857143	71.0	-65.0	0.2857142857142857	10.0	4.0	2.0	2.6223513015762023	0.436	3.0	stim	poldrack-single-stim	s628	False	1
660.442	1.5	659.691	n/a	-1.0	2.386	columbia_card_task_fmri	n/a	n/a	-1.0	n/a	n/a	n/a	n/a	n/a	n/a	n/a	n/a	ITI	poldrack-single-stim	s628	False	0
662.084	2.054	664.138	0.7343788423115338	draw_card	2.054	columbia_card_task_fmri	7.0	0.9166666666666666	89.0	-95.0	0.0833333333333333	12.0	1.0	1.0	-5.758154953001046	2.054	n/a	stim	poldrack-single-stim	s628	False	1
664.141	0.506	664.647	-0.0383484304157395	end_round	0.506	columbia_card_task_fmri	7.0	0.9090909090909092	71.0	-95.0	0.0909090909090909	12.0	2.0	1.0	-4.629929111971858	0.506	1.0	stim	poldrack-single-stim	s628	False	1
665.407	1.5	664.656	n/a	-1.0	2.59	columbia_card_task_fmri	n/a	n/a	-1.0	n/a	n/a	n/a	n/a	n/a	n/a	n/a	n/a	ITI	poldrack-single-stim	s628	False	0
667.251	6.329	673.58	1.4010455089782017	draw_card	6.329	columbia_card_task_fmri	14.0	0.8333333333333334	89.0	-75.0	0.1666666666666666	12.0	1.0	2.0	-0.7943572050372367	6.329	n/a	stim	poldrack-single-stim	s628	False	1
673.584	0.552	674.136	0.0525606604933504	draw_card	0.552	columbia_card_task_fmri	14.0	0.8181818181818181	89.0	-75.0	0.1818181818181818	12.0	2.0	2.0	0.3615896730887513	0.552	n/a	stim	poldrack-single-stim	s628	False	1
674.141	0.305	674.446	-1.565621157688465	draw_card	0.305	columbia_card_task_fmri	14.0	0.8	89.0	-75.0	0.2	12.0	3.0	2.0	1.6321768158448222	0.305	n/a	stim	poldrack-single-stim	s628	False	1
674.453	1.047	675.5	-3.543398935466241	draw_card	1.047	columbia_card_task_fmri	14.0	0.7777777777777778	89.0	-75.0	0.2222222222222222	12.0	4.0	2.0	3.0303638404273343	1.047	n/a	stim	poldrack-single-stim	s628	False	1
675.504	0.694	676.198	-6.015621157688466	end_round	0.694	columbia_card_task_fmri	14.0	0.75	71.0	-75.0	0.25	12.0	5.0	2.0	4.564976043566489	0.694	4.0	stim	poldrack-single-stim	s628	False	1
676.958	1.5	676.207	n/a	-1.0	2.318	columbia_card_task_fmri	n/a	n/a	-1.0	n/a	n/a	n/a	n/a	n/a	n/a	n/a	n/a	ITI	poldrack-single-stim	s628	False	0
678.53	6.009	684.539	3.067712175644868	draw_card	6.009	columbia_card_task_fmri	15.0	0.8333333333333334	89.0	-70.0	0.1666666666666666	12.0	1.0	2.0	-2.28154015861918	6.009	n/a	stim	poldrack-single-stim	s628	False	1
684.544	0.531	685.075	1.779833387766077	draw_card	0.531	columbia_card_task_fmri	15.0	0.8181818181818181	89.0	-70.0	0.1818181818181818	12.0	2.0	2.0	-1.177778023014966	0.531	2.0	stim	poldrack-single-stim	s628	False	0
685.833	1.5	685.082	n/a	-1.0	2.25	columbia_card_task_fmri	n/a	n/a	-1.0	n/a	n/a	n/a	n/a	n/a	n/a	n/a	n/a	ITI	poldrack-single-stim	s628	False	0
