onset	duration	movement_onset	EV	action	block_duration	experiment_exp_id	gain_amount	gain_probability	key_press	loss_amount	loss_probability	num_cards	num_click_in_round	num_loss_cards	risk	response_time	total_cards	trial_id	trial_type	worker_id	junk	feedback
3.016	2.722	5.738	-0.3333790364683899	draw_card	2.722	columbia_card_task_fmri	12.0	0.8333333333333334	89.0	-70.0	0.1666666666666666	6.0	1.0	1.0	-1.927761176550721	2.722	1.0	stim	poldrack-single-stim	s629	False	0
6.49	1.5	5.739	n/a	-1.0	2.454	columbia_card_task_fmri	n/a	n/a	-1.0	n/a	n/a	n/a	n/a	n/a	n/a	n/a	n/a	ITI	poldrack-single-stim	s629	False	0
8.196	1.115	9.311	0.4999542968649439	draw_card	1.115	columbia_card_task_fmri	14.0	0.8333333333333334	89.0	-75.0	0.1666666666666666	6.0	1.0	1.0	0.6787002187636517	1.115	n/a	stim	poldrack-single-stim	s629	False	1
9.313	1.368	10.681	-2.466712369801723	draw_card	1.368	columbia_card_task_fmri	14.0	0.8	89.0	-75.0	0.2	6.0	2.0	1.0	3.108530218003075	1.368	2.0	stim	poldrack-single-stim	s629	False	0
11.435	1.5	10.684	n/a	-1.0	2.454	columbia_card_task_fmri	n/a	n/a	-1.0	n/a	n/a	n/a	n/a	n/a	n/a	n/a	n/a	ITI	poldrack-single-stim	s629	False	0
13.139	0.57	13.709	2.16662096353161	draw_card	0.57	columbia_card_task_fmri	15.0	0.8333333333333334	89.0	-70.0	0.1666666666666666	6.0	1.0	1.0	-0.8107523074280643	0.57	n/a	stim	poldrack-single-stim	s629	False	1
13.711	0.666	14.377	-0.6667123698017239	end_round	0.666	columbia_card_task_fmri	15.0	0.8	71.0	-70.0	0.2	6.0	2.0	1.0	1.509703845798782	0.666	1.0	stim	poldrack-single-stim	s629	False	1
15.132	1.5	14.381	n/a	-1.0	2.522	columbia_card_task_fmri	n/a	n/a	-1.0	n/a	n/a	n/a	n/a	n/a	n/a	n/a	n/a	ITI	poldrack-single-stim	s629	False	0
16.906	1.374	18.28	2.999954296864944	draw_card	1.374	columbia_card_task_fmri	17.0	0.8333333333333334	89.0	-75.0	0.1666666666666666	6.0	1.0	1.0	1.795861400155438	1.374	n/a	stim	poldrack-single-stim	s629	False	1
18.282	1.984	20.266	-0.0667123698017224	end_round	1.984	columbia_card_task_fmri	17.0	0.8	71.0	-75.0	0.2	6.0	2.0	1.0	4.307716902082071	1.984	1.0	stim	poldrack-single-stim	s629	False	1
21.017	1.5	20.266	n/a	-1.0	2.386	columbia_card_task_fmri	n/a	n/a	-1.0	n/a	n/a	n/a	n/a	n/a	n/a	n/a	n/a	ITI	poldrack-single-stim	s629	False	0
22.654	1.062	23.716	4.333287630198276	draw_card	1.062	columbia_card_task_fmri	24.0	0.75	89.0	-60.0	0.25	8.0	1.0	2.0	3.88106707677408	1.062	n/a	stim	poldrack-single-stim	s629	False	1
23.718	0.405	24.123	1.333287630198276	draw_card	0.405	columbia_card_task_fmri	24.0	0.7142857142857143	89.0	-60.0	0.2857142857142857	8.0	2.0	2.0	5.454319260440187	0.405	n/a	stim	poldrack-single-stim	s629	False	1
24.125	1.19	25.315	-2.666712369801724	draw_card	1.19	columbia_card_task_fmri	24.0	0.6666666666666667	89.0	-60.0	0.3333333333333333	8.0	3.0	2.0	7.1039915731415135	1.19	n/a	stim	poldrack-single-stim	s629	False	1
25.316	0.784	26.1	-8.266712369801725	end_round	0.784	columbia_card_task_fmri	24.0	0.6	71.0	-60.0	0.4	8.0	4.0	2.0	8.656592860859476	0.784	3.0	stim	poldrack-single-stim	s629	False	1
26.854	1.5	26.103	n/a	-1.0	2.454	columbia_card_task_fmri	n/a	n/a	-1.0	n/a	n/a	n/a	n/a	n/a	n/a	n/a	n/a	ITI	poldrack-single-stim	s629	False	0
28.559	1.108	29.667	4.333287630198276	draw_card	1.108	columbia_card_task_fmri	29.0	0.75	89.0	-75.0	0.25	8.0	1.0	2.0	12.53662568065056	1.108	n/a	stim	poldrack-single-stim	s629	False	1
29.668	0.629	30.297	0.6190019159125644	draw_card	0.629	columbia_card_task_fmri	29.0	0.7142857142857143	89.0	-75.0	0.2857142857142857	8.0	2.0	2.0	14.484897346171609	0.629	2.0	stim	poldrack-single-stim	s629	False	0
31.053	1.5	30.302	n/a	-1.0	2.522	columbia_card_task_fmri	n/a	n/a	-1.0	n/a	n/a	n/a	n/a	n/a	n/a	n/a	n/a	ITI	poldrack-single-stim	s629	False	0
32.826	0.992	33.818	0.1110654079760564	draw_card	0.992	columbia_card_task_fmri	17.0	0.7777777777777778	89.0	-65.0	0.2222222222222222	9.0	1.0	2.0	1.6002905976881792	0.992	n/a	stim	poldrack-single-stim	s629	False	1
33.82	0.208	34.028	-2.166712369801724	draw_card	0.208	columbia_card_task_fmri	17.0	0.75	89.0	-65.0	0.25	9.0	2.0	2.0	3.0156370688218104	0.208	2.0	stim	poldrack-single-stim	s629	False	0
34.78	1.5	34.029	n/a	-1.0	2.522	columbia_card_task_fmri	n/a	n/a	-1.0	n/a	n/a	n/a	n/a	n/a	n/a	n/a	n/a	ITI	poldrack-single-stim	s629	False	0
36.554	0.674	37.228	4.433287630198276	draw_card	0.674	columbia_card_task_fmri	14.0	0.9	89.0	-95.0	0.1	10.0	1.0	1.0	0.2107418848930891	0.674	n/a	stim	poldrack-single-stim	s629	False	1
37.23	0.498	37.728	3.222176519087164	end_round	0.498	columbia_card_task_fmri	14.0	0.8888888888888888	71.0	-95.0	0.1111111111111111	10.0	2.0	1.0	1.7649043413302363	0.498	1.0	stim	poldrack-single-stim	s629	False	1
38.483	1.5	37.732	n/a	-1.0	2.59	columbia_card_task_fmri	n/a	n/a	-1.0	n/a	n/a	n/a	n/a	n/a	n/a	n/a	n/a	ITI	poldrack-single-stim	s629	False	0
40.325	1.151	41.476	0.3332876301982761	draw_card	1.151	columbia_card_task_fmri	15.0	0.8	89.0	-65.0	0.2	10.0	1.0	2.0	-0.4886642811705499	1.151	n/a	stim	poldrack-single-stim	s629	False	1
41.478	1.379	42.857	-1.444490147579501	draw_card	1.379	columbia_card_task_fmri	15.0	0.7777777777777778	89.0	-65.0	0.2222222222222222	10.0	2.0	2.0	0.7694622247993337	1.379	n/a	stim	poldrack-single-stim	s629	False	1
42.858	0.976	43.834	-3.666712369801724	draw_card	0.976	columbia_card_task_fmri	15.0	0.75	89.0	-65.0	0.25	10.0	3.0	2.0	2.150236798422327	0.976	n/a	stim	poldrack-single-stim	s629	False	1
43.835	1.45	45.285	-6.523855226944578	end_round	1.45	columbia_card_task_fmri	15.0	0.7142857142857143	71.0	-65.0	0.2857142857142857	10.0	4.0	2.0	3.6484734500906697	1.45	3.0	stim	poldrack-single-stim	s629	False	1
46.04	1.5	45.289	n/a	-1.0	2.454	columbia_card_task_fmri	n/a	n/a	-1.0	n/a	n/a	n/a	n/a	n/a	n/a	n/a	n/a	ITI	poldrack-single-stim	s629	False	0
47.745	0.948	48.693	1.933287630198277	draw_card	0.948	columbia_card_task_fmri	17.0	0.8	89.0	-65.0	0.2	10.0	1.0	2.0	0.3106591179972255	0.948	n/a	stim	poldrack-single-stim	s629	False	1
48.694	0.763	49.457	0.1110654079760564	draw_card	0.763	columbia_card_task_fmri	17.0	0.7777777777777778	89.0	-65.0	0.2222222222222222	10.0	2.0	2.0	1.6002905976881792	0.763	n/a	stim	poldrack-single-stim	s629	False	1
49.458	0.689	50.147	-2.166712369801724	draw_card	0.689	columbia_card_task_fmri	17.0	0.75	89.0	-65.0	0.25	10.0	3.0	2.0	3.0156370688218104	0.689	n/a	stim	poldrack-single-stim	s629	False	1
50.149	0.842	50.991	-5.095283798373151	end_round	0.842	columbia_card_task_fmri	17.0	0.7142857142857143	71.0	-65.0	0.2857142857142857	10.0	4.0	2.0	4.5513821008798345	0.842	3.0	stim	poldrack-single-stim	s629	False	1
51.745	1.5	50.994	n/a	-1.0	2.318	columbia_card_task_fmri	n/a	n/a	-1.0	n/a	n/a	n/a	n/a	n/a	n/a	n/a	n/a	ITI	poldrack-single-stim	s629	False	0
53.314	2.378	55.692	0.4999542968649439	draw_card	2.378	columbia_card_task_fmri	13.0	0.8333333333333334	89.0	-70.0	0.1666666666666666	12.0	1.0	2.0	-1.5554331093251008	2.378	n/a	stim	poldrack-single-stim	s629	False	1
55.694	0.333	56.027	-0.7576214607108174	draw_card	0.333	columbia_card_task_fmri	13.0	0.8181818181818181	89.0	-70.0	0.1818181818181818	12.0	2.0	2.0	-0.4760227874914164	0.333	n/a	stim	poldrack-single-stim	s629	False	1
56.027	0.404	56.431	-2.2667123698017235	draw_card	0.404	columbia_card_task_fmri	13.0	0.8	89.0	-70.0	0.2	12.0	3.0	2.0	0.7103330302942723	0.404	n/a	stim	poldrack-single-stim	s629	False	1
56.433	0.397	56.83	-4.1111568142461685	draw_card	0.397	columbia_card_task_fmri	13.0	0.7777777777777778	89.0	-70.0	0.2222222222222222	12.0	4.0	2.0	2.0157165366572016	0.397	4.0	stim	poldrack-single-stim	s629	False	0
57.586	1.5	56.835	n/a	-1.0	2.25	columbia_card_task_fmri	n/a	n/a	-1.0	n/a	n/a	n/a	n/a	n/a	n/a	n/a	n/a	ITI	poldrack-single-stim	s629	False	0
59.087	1.48	60.567	0.4999542968649439	draw_card	1.48	columbia_card_task_fmri	15.0	0.8333333333333334	89.0	-80.0	0.1666666666666666	12.0	1.0	2.0	2.9130776457166334	1.48	n/a	stim	poldrack-single-stim	s629	False	1
60.57	0.912	61.482	-0.939439642528999	draw_card	0.912	columbia_card_task_fmri	15.0	0.8181818181818181	89.0	-80.0	0.1818181818181818	12.0	2.0	2.0	4.148809368326383	0.912	n/a	stim	poldrack-single-stim	s629	False	1
61.484	0.964	62.448	-2.666712369801724	draw_card	0.964	columbia_card_task_fmri	15.0	0.8	89.0	-80.0	0.2	12.0	3.0	2.0	5.50695490453122	0.964	n/a	stim	poldrack-single-stim	s629	False	1
62.449	1.219	63.668	-4.777823480912836	end_round	1.219	columbia_card_task_fmri	15.0	0.7777777777777778	71.0	-80.0	0.2222222222222222	12.0	4.0	2.0	7.001342564447697	1.219	3.0	stim	poldrack-single-stim	s629	False	1
64.421	1.5	63.67	n/a	-1.0	2.658	columbia_card_task_fmri	n/a	n/a	-1.0	n/a	n/a	n/a	n/a	n/a	n/a	n/a	n/a	ITI	poldrack-single-stim	s629	False	0
66.331	1.88	68.211	-0.4667123698017228	draw_card	1.88	columbia_card_task_fmri	14.0	0.8	89.0	-65.0	0.2	15.0	1.0	3.0	-0.8883131507482425	1.88	n/a	stim	poldrack-single-stim	s629	False	1
68.213	0.331	68.544	-1.595283798373151	draw_card	0.331	columbia_card_task_fmri	14.0	0.7857142857142857	89.0	-65.0	0.2142857142857142	15.0	2.0	3.0	-0.0732736992496398	0.331	n/a	stim	poldrack-single-stim	s629	False	1
68.546	0.374	68.92	-2.897481600570956	draw_card	0.374	columbia_card_task_fmri	14.0	0.7692307692307692	89.0	-65.0	0.2307692307692307	15.0	3.0	3.0	0.7949434972949803	0.374	3.0	stim	poldrack-single-stim	s629	False	0
69.675	1.5	68.924	n/a	-1.0	2.454	columbia_card_task_fmri	n/a	n/a	-1.0	n/a	n/a	n/a	n/a	n/a	n/a	n/a	n/a	ITI	poldrack-single-stim	s629	False	0
71.381	1.642	73.023	-0.5417123698017239	draw_card	1.642	columbia_card_task_fmri	1.0	0.9375	89.0	-45.0	0.0625	16.0	1.0	1.0	-21.30206094575537	1.642	n/a	stim	poldrack-single-stim	s629	False	1
73.025	0.45	73.475	-0.7333790364683903	end_round	0.45	columbia_card_task_fmri	1.0	0.9333333333333332	71.0	-45.0	0.0666666666666666	16.0	2.0	1.0	-20.9648101230512	0.45	1.0	stim	poldrack-single-stim	s629	False	1
74.23	1.5	73.479	n/a	-1.0	2.386	columbia_card_task_fmri	n/a	n/a	-1.0	n/a	n/a	n/a	n/a	n/a	n/a	n/a	n/a	ITI	poldrack-single-stim	s629	False	0
75.868	0.576	76.444	0.3957876301982761	draw_card	0.576	columbia_card_task_fmri	15.0	0.8125	89.0	-70.0	0.1875	16.0	1.0	3.0	0.6869037954608004	0.576	n/a	stim	poldrack-single-stim	s629	False	1
76.446	0.265	76.711	-0.6667123698017239	draw_card	0.265	columbia_card_task_fmri	15.0	0.8	89.0	-70.0	0.2	16.0	2.0	3.0	1.509703845798782	0.265	n/a	stim	poldrack-single-stim	s629	False	1
76.713	0.48	77.193	-1.8809980840874392	draw_card	0.48	columbia_card_task_fmri	15.0	0.7857142857142857	89.0	-70.0	0.2142857142857142	16.0	3.0	3.0	2.386748500521783	0.48	n/a	stim	poldrack-single-stim	s629	False	1
77.195	0.371	77.566	-3.2820969851863406	end_round	0.371	columbia_card_task_fmri	15.0	0.7692307692307692	71.0	-70.0	0.2307692307692307	16.0	4.0	3.0	3.321010896854048	0.371	3.0	stim	poldrack-single-stim	s629	False	1
78.319	1.5	77.568	n/a	-1.0	2.59	columbia_card_task_fmri	n/a	n/a	-1.0	n/a	n/a	n/a	n/a	n/a	n/a	n/a	n/a	ITI	poldrack-single-stim	s629	False	0
80.162	0.532	80.694	7.333287630198276	end_round	0.532	columbia_card_task_fmri	30.0	0.7	71.0	-50.0	0.3	10.0	1.0	3.0	4.168414207651814	0.532	0.0	stim	poldrack-single-stim	s629	False	1
81.45	1.5	80.699	n/a	-1.0	2.318	columbia_card_task_fmri	n/a	n/a	-1.0	n/a	n/a	n/a	n/a	n/a	n/a	n/a	n/a	ITI	poldrack-single-stim	s629	False	0
83.02	0.725	83.745	6.7332876301982765	draw_card	0.725	columbia_card_task_fmri	17.0	0.8666666666666667	89.0	-70.0	0.1333333333333333	15.0	1.0	2.0	-2.912076134698921	0.725	n/a	stim	poldrack-single-stim	s629	False	1
83.746	0.44	84.186	5.904716201626849	draw_card	0.44	columbia_card_task_fmri	17.0	0.8571428571428572	89.0	-70.0	0.1428571428571428	15.0	2.0	2.0	-2.043588032197544	0.44	n/a	stim	poldrack-single-stim	s629	False	1
84.188	0.402	84.59	4.948672245582891	draw_card	0.402	columbia_card_task_fmri	17.0	0.8461538461538461	89.0	-70.0	0.1538461538461538	15.0	3.0	2.0	-1.0984194948236663	0.402	n/a	stim	poldrack-single-stim	s629	False	1
84.591	0.341	84.932	3.833287630198278	draw_card	0.341	columbia_card_task_fmri	17.0	0.8333333333333334	89.0	-70.0	0.1666666666666666	15.0	4.0	2.0	-0.0660405025324166	0.341	n/a	stim	poldrack-single-stim	s629	False	1
84.934	0.405	85.339	2.515105812016456	draw_card	0.405	columbia_card_task_fmri	17.0	0.8181818181818181	89.0	-70.0	0.1818181818181818	15.0	5.0	2.0	1.0654806806360924	0.405	n/a	stim	poldrack-single-stim	s629	False	1
85.342	0.408	85.75	0.9332876301982777	draw_card	0.408	columbia_card_task_fmri	17.0	0.8	89.0	-70.0	0.2	15.0	6.0	2.0	2.3091035567627287	0.408	n/a	stim	poldrack-single-stim	s629	False	1
85.751	0.592	86.343	-1.000045703135056	end_round	0.592	columbia_card_task_fmri	17.0	0.7777777777777778	71.0	-70.0	0.2222222222222222	15.0	7.0	2.0	3.677492347635592	0.592	6.0	stim	poldrack-single-stim	s629	False	1
87.098	1.5	86.347	n/a	-1.0	2.59	columbia_card_task_fmri	n/a	n/a	-1.0	n/a	n/a	n/a	n/a	n/a	n/a	n/a	n/a	ITI	poldrack-single-stim	s629	False	0
88.939	1.735	90.674	1.958287630198276	draw_card	1.735	columbia_card_task_fmri	7.0	0.9375	89.0	-95.0	0.0625	16.0	1.0	1.0	-7.790186363992262	1.735	n/a	stim	poldrack-single-stim	s629	False	1
90.675	0.335	91.01	1.5332876301982763	draw_card	0.335	columbia_card_task_fmri	7.0	0.9333333333333332	89.0	-95.0	0.0666666666666666	16.0	2.0	1.0	-7.038248114534827	0.335	n/a	stim	poldrack-single-stim	s629	False	1
91.012	0.356	91.368	1.0475733444839903	draw_card	0.356	columbia_card_task_fmri	7.0	0.9285714285714286	89.0	-95.0	0.0714285714285714	16.0	3.0	1.0	-6.213597836997888	0.356	n/a	stim	poldrack-single-stim	s629	False	1
91.371	0.784	92.155	0.4871337840444294	end_round	0.784	columbia_card_task_fmri	7.0	0.9230769230769232	71.0	-95.0	0.0769230769230769	16.0	4.0	1.0	-5.303871853560246	0.784	3.0	stim	poldrack-single-stim	s629	False	1
92.907	1.5	92.156	n/a	-1.0	2.386	columbia_card_task_fmri	n/a	n/a	-1.0	n/a	n/a	n/a	n/a	n/a	n/a	n/a	n/a	ITI	poldrack-single-stim	s629	False	0
94.545	1.021	95.566	3.520787630198276	draw_card	1.021	columbia_card_task_fmri	9.0	0.9375	89.0	-100.0	0.0625	16.0	1.0	1.0	-6.098063292501287	1.021	n/a	stim	poldrack-single-stim	s629	False	1
95.568	0.302	95.87	3.066620963531609	draw_card	0.302	columbia_card_task_fmri	9.0	0.9333333333333332	89.0	-100.0	0.0666666666666666	16.0	2.0	1.0	-5.294380462882522	0.302	n/a	stim	poldrack-single-stim	s629	False	1
95.873	0.202	96.075	2.5475733444839914	draw_card	0.202	columbia_card_task_fmri	9.0	0.9285714285714286	89.0	-100.0	0.0714285714285714	16.0	3.0	1.0	-4.412991201269779	0.202	3.0	stim	poldrack-single-stim	s629	False	0
96.831	1.5	96.08	n/a	-1.0	2.318	columbia_card_task_fmri	n/a	n/a	-1.0	n/a	n/a	n/a	n/a	n/a	n/a	n/a	n/a	ITI	poldrack-single-stim	s629	False	0
98.401	1.134	99.535	4.458287630198276	draw_card	1.134	columbia_card_task_fmri	15.0	0.875	89.0	-80.0	0.125	16.0	1.0	2.0	-1.0698538788406964	1.134	n/a	stim	poldrack-single-stim	s629	False	1
99.538	0.53	100.068	3.66662096353161	draw_card	0.53	columbia_card_task_fmri	15.0	0.8666666666666667	89.0	-80.0	0.1333333333333333	16.0	2.0	2.0	-0.1951263917230292	0.53	n/a	stim	poldrack-single-stim	s629	False	1
100.069	0.486	100.555	2.7618590587697067	draw_card	0.486	columbia_card_task_fmri	15.0	0.8571428571428572	89.0	-80.0	0.1428571428571428	16.0	3.0	2.0	0.7533734627544675	0.486	n/a	stim	poldrack-single-stim	s629	False	1
100.558	0.434	100.992	1.7179030148136594	end_round	0.434	columbia_card_task_fmri	15.0	0.8461538461538461	71.0	-80.0	0.1538461538461538	16.0	4.0	2.0	1.785608664499172	0.434	3.0	stim	poldrack-single-stim	s629	False	1
101.746	1.5	100.995	n/a	-1.0	2.318	columbia_card_task_fmri	n/a	n/a	-1.0	n/a	n/a	n/a	n/a	n/a	n/a	n/a	n/a	ITI	poldrack-single-stim	s629	False	0
103.317	1.917	105.234	6.583287630198276	end_round	1.917	columbia_card_task_fmri	16.0	0.875	71.0	-70.0	0.125	16.0	1.0	2.0	-4.043367932376714	1.917	0.0	stim	poldrack-single-stim	s629	False	1
105.991	1.5	105.24	n/a	-1.0	2.318	columbia_card_task_fmri	n/a	n/a	-1.0	n/a	n/a	n/a	n/a	n/a	n/a	n/a	n/a	ITI	poldrack-single-stim	s629	False	0
107.56	0.334	107.894	7.895787630198276	draw_card	0.334	columbia_card_task_fmri	30.0	0.6875	89.0	-45.0	0.3125	16.0	1.0	5.0	2.2725608034870817	0.334	1.0	stim	poldrack-single-stim	s629	False	0
108.647	1.5	107.896	n/a	-1.0	2.386	columbia_card_task_fmri	n/a	n/a	-1.0	n/a	n/a	n/a	n/a	n/a	n/a	n/a	n/a	ITI	poldrack-single-stim	s629	False	0
110.285	0.332	110.617	-0.3333790364683899	draw_card	0.332	columbia_card_task_fmri	13.0	0.8333333333333334	89.0	-75.0	0.1666666666666666	6.0	1.0	1.0	0.3063263665837397	0.332	n/a	stim	poldrack-single-stim	s629	False	1
110.62	0.785	111.405	-3.2667123698017235	draw_card	0.785	columbia_card_task_fmri	13.0	0.8	89.0	-75.0	0.2	6.0	2.0	1.0	2.708813633277288	0.785	2.0	stim	poldrack-single-stim	s629	False	0
112.159	1.5	111.408	n/a	-1.0	2.25	columbia_card_task_fmri	n/a	n/a	-1.0	n/a	n/a	n/a	n/a	n/a	n/a	n/a	n/a	ITI	poldrack-single-stim	s629	False	0
113.66	0.725	114.385	1.333287630198278	draw_card	0.725	columbia_card_task_fmri	14.0	0.8333333333333334	89.0	-70.0	0.1666666666666666	6.0	1.0	1.0	-1.1830967219091877	0.725	n/a	stim	poldrack-single-stim	s629	False	1
114.388	0.666	115.054	-1.4667123698017228	end_round	0.666	columbia_card_task_fmri	14.0	0.8	71.0	-70.0	0.2	6.0	2.0	1.0	1.110014697317581	0.666	1.0	stim	poldrack-single-stim	s629	False	1
115.809	1.5	115.058	n/a	-1.0	2.386	columbia_card_task_fmri	n/a	n/a	-1.0	n/a	n/a	n/a	n/a	n/a	n/a	n/a	n/a	ITI	poldrack-single-stim	s629	False	0
117.447	0.505	117.952	1.333287630198278	draw_card	0.505	columbia_card_task_fmri	16.0	0.8333333333333334	89.0	-80.0	0.1666666666666666	6.0	1.0	1.0	3.2854944064207103	0.505	n/a	stim	poldrack-single-stim	s629	False	1
117.954	0.558	118.512	-1.8667123698017232	draw_card	0.558	columbia_card_task_fmri	16.0	0.8	89.0	-80.0	0.2	6.0	2.0	1.0	5.906711478916641	0.558	2.0	stim	poldrack-single-stim	s629	False	0
119.269	1.5	118.518	n/a	-1.0	2.59	columbia_card_task_fmri	n/a	n/a	-1.0	n/a	n/a	n/a	n/a	n/a	n/a	n/a	n/a	ITI	poldrack-single-stim	s629	False	0
121.111	0.354	121.465	3.833287630198278	draw_card	0.354	columbia_card_task_fmri	17.0	0.8333333333333334	89.0	-70.0	0.1666666666666666	6.0	1.0	1.0	-0.0660405025324166	0.354	n/a	stim	poldrack-single-stim	s629	False	1
121.467	0.424	121.891	0.9332876301982777	end_round	0.424	columbia_card_task_fmri	17.0	0.8	71.0	-70.0	0.2	6.0	2.0	1.0	2.3091035567627287	0.424	1.0	stim	poldrack-single-stim	s629	False	1
122.647	1.5	121.896	n/a	-1.0	2.658	columbia_card_task_fmri	n/a	n/a	-1.0	n/a	n/a	n/a	n/a	n/a	n/a	n/a	n/a	ITI	poldrack-single-stim	s629	False	0
124.557	0.732	125.289	3.833287630198276	draw_card	0.732	columbia_card_task_fmri	25.0	0.75	89.0	-65.0	0.25	8.0	1.0	2.0	6.477515725791285	0.732	n/a	stim	poldrack-single-stim	s629	False	1
125.293	0.434	125.727	0.6190019159125644	draw_card	0.434	columbia_card_task_fmri	25.0	0.7142857142857143	89.0	-65.0	0.2857142857142857	8.0	2.0	2.0	8.163282807816088	0.434	n/a	stim	poldrack-single-stim	s629	False	1
125.729	0.402	126.131	-3.66671236980172	draw_card	0.402	columbia_card_task_fmri	25.0	0.6666666666666667	89.0	-65.0	0.3333333333333333	8.0	3.0	2.0	9.930923466578465	0.402	n/a	stim	poldrack-single-stim	s629	False	1
126.133	0.723	126.856	-9.666712369801724	draw_card	0.723	columbia_card_task_fmri	25.0	0.6	89.0	-65.0	0.4	8.0	4.0	2.0	11.594541680564824	0.723	n/a	stim	poldrack-single-stim	s629	False	1
126.858	0.732	127.59	-18.66671236980172	draw_card	0.732	columbia_card_task_fmri	25.0	0.5	89.0	-65.0	0.5	8.0	5.0	2.0	12.50331928892799	0.732	5.0	stim	poldrack-single-stim	s629	False	0
128.343	1.5	127.592	n/a	-1.0	2.386	columbia_card_task_fmri	n/a	n/a	-1.0	n/a	n/a	n/a	n/a	n/a	n/a	n/a	n/a	ITI	poldrack-single-stim	s629	False	0
129.98	0.647	130.627	3.833287630198276	draw_card	0.647	columbia_card_task_fmri	30.0	0.75	89.0	-80.0	0.25	8.0	1.0	2.0	15.133625991342376	0.647	1.0	stim	poldrack-single-stim	s629	False	0
131.383	1.5	130.632	n/a	-1.0	2.386	columbia_card_task_fmri	n/a	n/a	-1.0	n/a	n/a	n/a	n/a	n/a	n/a	n/a	n/a	ITI	poldrack-single-stim	s629	False	0
133.022	2.269	135.291	3.533287630198277	draw_card	2.269	columbia_card_task_fmri	13.0	0.9	89.0	-95.0	0.1	10.0	1.0	1.0	-0.0890067528382942	2.269	n/a	stim	poldrack-single-stim	s629	False	1
135.293	1.388	136.681	2.333287630198276	draw_card	1.388	columbia_card_task_fmri	13.0	0.8888888888888888	89.0	-95.0	0.1111111111111111	10.0	2.0	1.0	1.4508746365161755	1.388	2.0	stim	poldrack-single-stim	s629	False	0
137.434	1.5	136.683	n/a	-1.0	2.25	columbia_card_task_fmri	n/a	n/a	-1.0	n/a	n/a	n/a	n/a	n/a	n/a	n/a	n/a	ITI	poldrack-single-stim	s629	False	0
138.936	1.373	140.309	4.933287630198276	draw_card	1.373	columbia_card_task_fmri	14.0	0.9	89.0	-90.0	0.1	10.0	1.0	1.0	-1.2879530291380803	1.373	n/a	stim	poldrack-single-stim	s629	False	1
140.312	0.601	140.913	3.777732074642719	draw_card	0.601	columbia_card_task_fmri	14.0	0.8888888888888888	89.0	-90.0	0.1111111111111111	10.0	2.0	1.0	0.1948019105127088	0.601	2.0	stim	poldrack-single-stim	s629	False	0
141.67	1.5	140.919	n/a	-1.0	2.318	columbia_card_task_fmri	n/a	n/a	-1.0	n/a	n/a	n/a	n/a	n/a	n/a	n/a	n/a	ITI	poldrack-single-stim	s629	False	0
143.241	0.81	144.051	0.1332876301982768	draw_card	0.81	columbia_card_task_fmri	16.0	0.8	89.0	-70.0	0.2	10.0	1.0	2.0	1.9094002151552656	0.81	n/a	stim	poldrack-single-stim	s629	False	1
144.053	0.591	144.644	-1.7778234809128346	end_round	0.591	columbia_card_task_fmri	16.0	0.7777777777777778	71.0	-70.0	0.2222222222222222	10.0	2.0	2.0	3.262038088624763	0.591	1.0	stim	poldrack-single-stim	s629	False	1
145.397	1.5	144.646	n/a	-1.0	2.25	columbia_card_task_fmri	n/a	n/a	-1.0	n/a	n/a	n/a	n/a	n/a	n/a	n/a	n/a	ITI	poldrack-single-stim	s629	False	0
146.9	0.347	147.247	-0.58337903646839	draw_card	0.347	columbia_card_task_fmri	7.0	0.9166666666666666	89.0	-100.0	0.0833333333333333	12.0	1.0	1.0	-2.91315050824781	0.347	n/a	stim	poldrack-single-stim	s629	False	1
147.249	2.091	149.34	-1.3939850970744525	end_round	2.091	columbia_card_task_fmri	7.0	0.9090909090909092	71.0	-100.0	0.0909090909090909	12.0	2.0	1.0	-1.7272091692107203	2.091	1.0	stim	poldrack-single-stim	s629	False	1
150.096	1.5	149.345	n/a	-1.0	2.25	columbia_card_task_fmri	n/a	n/a	-1.0	n/a	n/a	n/a	n/a	n/a	n/a	n/a	n/a	ITI	poldrack-single-stim	s629	False	0
151.599	1.047	152.646	-0.3333790364683882	draw_card	1.047	columbia_card_task_fmri	14.0	0.8333333333333334	89.0	-80.0	0.1666666666666666	12.0	1.0	2.0	2.540666437248234	1.047	1.0	stim	poldrack-single-stim	s629	False	0
153.4	1.5	152.649	n/a	-1.0	2.386	columbia_card_task_fmri	n/a	n/a	-1.0	n/a	n/a	n/a	n/a	n/a	n/a	n/a	n/a	ITI	poldrack-single-stim	s629	False	0
155.039	0.117	155.156	1.333287630198276	draw_card	0.117	columbia_card_task_fmri	15.0	0.8333333333333334	89.0	-75.0	0.1666666666666666	12.0	1.0	2.0	1.0510808216120466	0.117	n/a	stim	poldrack-single-stim	s629	False	1
155.157	0.312	155.469	-0.0303487334380889	draw_card	0.312	columbia_card_task_fmri	15.0	0.8181818181818181	89.0	-75.0	0.1818181818181818	12.0	2.0	2.0	2.2216825691766147	0.312	2.0	stim	poldrack-single-stim	s629	False	0
156.226	1.5	155.475	n/a	-1.0	2.386	columbia_card_task_fmri	n/a	n/a	-1.0	n/a	n/a	n/a	n/a	n/a	n/a	n/a	n/a	ITI	poldrack-single-stim	s629	False	0
157.864	1.026	158.89	0.3332876301982761	draw_card	1.026	columbia_card_task_fmri	15.0	0.8	89.0	-65.0	0.2	15.0	1.0	3.0	-0.4886642811705499	1.026	n/a	stim	poldrack-single-stim	s629	False	1
158.893	0.885	159.778	-0.8095695126588662	draw_card	0.885	columbia_card_task_fmri	15.0	0.7857142857142857	89.0	-65.0	0.2142857142857142	15.0	2.0	3.0	0.3367098874984648	0.885	n/a	stim	poldrack-single-stim	s629	False	1
159.78	0.473	160.253	-2.1282508313401878	end_round	0.473	columbia_card_task_fmri	15.0	0.7692307692307692	71.0	-65.0	0.2307692307692307	15.0	3.0	3.0	1.2159351399994804	0.473	2.0	stim	poldrack-single-stim	s629	False	1
161.009	1.5	160.258	n/a	-1.0	2.726	columbia_card_task_fmri	n/a	n/a	-1.0	n/a	n/a	n/a	n/a	n/a	n/a	n/a	n/a	ITI	poldrack-single-stim	s629	False	0
162.987	1.074	164.061	-0.4167123698017239	draw_card	1.074	columbia_card_task_fmri	14.0	0.8125	89.0	-70.0	0.1875	16.0	1.0	3.0	0.2969099688140915	1.074	1.0	stim	poldrack-single-stim	s629	False	0
164.814	1.5	164.063	n/a	-1.0	2.454	columbia_card_task_fmri	n/a	n/a	-1.0	n/a	n/a	n/a	n/a	n/a	n/a	n/a	n/a	ITI	poldrack-single-stim	s629	False	0
166.52	0.385	166.905	-0.4792123698017239	draw_card	0.385	columbia_card_task_fmri	11.0	0.6875	89.0	-30.0	0.3125	16.0	1.0	5.0	-13.46570634841693	0.385	n/a	stim	poldrack-single-stim	s629	False	1
166.908	0.301	167.209	-1.33337903646839	draw_card	0.301	columbia_card_task_fmri	11.0	0.6666666666666667	89.0	-30.0	0.3333333333333333	16.0	2.0	5.0	-13.142909806849374	0.301	n/a	stim	poldrack-single-stim	s629	False	1
167.211	0.429	167.64	-2.309569512658868	draw_card	0.429	columbia_card_task_fmri	11.0	0.6428571428571428	89.0	-30.0	0.3571428571428571	16.0	3.0	5.0	-12.825782274027926	0.429	n/a	stim	poldrack-single-stim	s629	False	1
167.644	0.498	168.142	-3.435943139032492	draw_card	0.498	columbia_card_task_fmri	11.0	0.6153846153846154	89.0	-30.0	0.3846153846153846	16.0	4.0	5.0	-12.525243093308426	0.498	n/a	stim	poldrack-single-stim	s629	False	1
168.144	0.535	168.679	-4.750045703135058	end_round	0.535	columbia_card_task_fmri	11.0	0.5833333333333333	71.0	-30.0	0.4166666666666667	16.0	5.0	5.0	-12.259230752640075	0.535	4.0	stim	poldrack-single-stim	s629	False	1
169.436	1.5	168.685	n/a	-1.0	2.318	columbia_card_task_fmri	n/a	n/a	-1.0	n/a	n/a	n/a	n/a	n/a	n/a	n/a	n/a	ITI	poldrack-single-stim	s629	False	0
171.007	0.969	171.976	4.333287630198276	draw_card	0.969	columbia_card_task_fmri	15.0	0.8666666666666667	89.0	-75.0	0.1333333333333333	15.0	1.0	2.0	-1.893272559394632	0.969	n/a	stim	poldrack-single-stim	s629	False	1
171.979	0.319	172.298	3.47614477305542	draw_card	0.319	columbia_card_task_fmri	15.0	0.8571428571428572	89.0	-75.0	0.1428571428571428	15.0	2.0	2.0	-0.994778556564178	0.319	n/a	stim	poldrack-single-stim	s629	False	1
172.3	0.226	172.526	2.4871337840444294	draw_card	0.226	columbia_card_task_fmri	15.0	0.8461538461538461	89.0	-75.0	0.1538461538461538	15.0	3.0	2.0	-0.0169584882150033	0.226	n/a	stim	poldrack-single-stim	s629	False	1
172.529	0.53	173.059	1.333287630198276	draw_card	0.53	columbia_card_task_fmri	15.0	0.8333333333333334	89.0	-75.0	0.1666666666666666	15.0	4.0	2.0	1.0510808216120466	0.53	n/a	stim	poldrack-single-stim	s629	False	1
173.062	0.31	173.372	-0.0303487334380889	draw_card	0.31	columbia_card_task_fmri	15.0	0.8181818181818181	89.0	-75.0	0.1818181818181818	15.0	5.0	2.0	2.2216825691766147	0.31	n/a	stim	poldrack-single-stim	s629	False	1
173.375	0.319	173.694	-1.666712369801724	draw_card	0.319	columbia_card_task_fmri	15.0	0.8	89.0	-75.0	0.2	15.0	6.0	2.0	3.5082530943019563	0.319	n/a	stim	poldrack-single-stim	s629	False	1
173.697	0.449	174.146	-3.666712369801722	end_round	0.449	columbia_card_task_fmri	15.0	0.7777777777777778	71.0	-75.0	0.2222222222222222	15.0	7.0	2.0	4.9238931475730965	0.449	6.0	stim	poldrack-single-stim	s629	False	1
174.903	1.5	174.152	n/a	-1.0	2.318	columbia_card_task_fmri	n/a	n/a	-1.0	n/a	n/a	n/a	n/a	n/a	n/a	n/a	n/a	ITI	poldrack-single-stim	s629	False	0
176.474	1.233	177.707	6.06662096353161	draw_card	1.233	columbia_card_task_fmri	17.0	0.8666666666666667	89.0	-75.0	0.1333333333333333	15.0	1.0	2.0	-1.214033982742453	1.233	1.0	stim	poldrack-single-stim	s629	False	0
178.46	1.5	177.709	n/a	-1.0	2.59	columbia_card_task_fmri	n/a	n/a	-1.0	n/a	n/a	n/a	n/a	n/a	n/a	n/a	n/a	ITI	poldrack-single-stim	s629	False	0
180.303	0.872	181.175	1.645787630198276	draw_card	0.872	columbia_card_task_fmri	2.0	0.9375	89.0	-25.0	0.0625	16.0	1.0	1.0	-25.84615827672619	0.872	n/a	stim	poldrack-single-stim	s629	False	1
181.178	0.271	181.449	1.533287630198276	draw_card	0.271	columbia_card_task_fmri	2.0	0.9333333333333332	89.0	-25.0	0.0666666666666666	16.0	2.0	1.0	-25.650741261730392	0.271	n/a	stim	poldrack-single-stim	s629	False	1
181.452	0.461	181.913	1.4047162016268475	draw_card	0.461	columbia_card_task_fmri	2.0	0.9285714285714286	89.0	-25.0	0.0714285714285714	16.0	3.0	1.0	-25.43619529499803	0.461	n/a	stim	poldrack-single-stim	s629	False	1
181.916	0.638	182.554	1.2563645532751992	end_round	0.638	columbia_card_task_fmri	2.0	0.9230769230769232	71.0	-25.0	0.0769230769230769	16.0	4.0	1.0	-25.1992586089188	0.638	3.0	stim	poldrack-single-stim	s629	False	1
183.311	1.5	182.56	n/a	-1.0	2.726	columbia_card_task_fmri	n/a	n/a	-1.0	n/a	n/a	n/a	n/a	n/a	n/a	n/a	n/a	ITI	poldrack-single-stim	s629	False	0
185.29	0.827	186.117	3.833287630198276	draw_card	0.827	columbia_card_task_fmri	9.0	0.9375	89.0	-95.0	0.0625	16.0	1.0	1.0	-7.306754254879035	0.827	n/a	stim	poldrack-single-stim	s629	False	1
186.12	0.241	186.361	3.3999542968649434	draw_card	0.241	columbia_card_task_fmri	9.0	0.9333333333333332	89.0	-95.0	0.0666666666666666	16.0	2.0	1.0	-6.540030911073096	0.241	n/a	stim	poldrack-single-stim	s629	False	1
186.364	0.179	186.543	2.904716201626848	draw_card	0.179	columbia_card_task_fmri	9.0	0.9285714285714286	89.0	-95.0	0.0714285714285714	16.0	3.0	1.0	-5.699168537438776	0.179	n/a	stim	poldrack-single-stim	s629	False	1
186.546	0.176	186.722	2.333287630198276	draw_card	0.176	columbia_card_task_fmri	9.0	0.9230769230769232	89.0	-95.0	0.0769230769230769	16.0	4.0	1.0	-4.771560911196733	0.176	n/a	stim	poldrack-single-stim	s629	False	1
186.725	0.171	186.896	1.66662096353161	draw_card	0.171	columbia_card_task_fmri	9.0	0.9166666666666666	89.0	-95.0	0.0833333333333333	16.0	5.0	1.0	-3.741441088273984	0.171	n/a	stim	poldrack-single-stim	s629	False	1
186.899	0.354	187.253	0.8787421756528211	draw_card	0.354	columbia_card_task_fmri	9.0	0.9090909090909092	89.0	-95.0	0.0909090909090909	16.0	6.0	1.0	-2.588816220678197	0.354	n/a	stim	poldrack-single-stim	s629	False	1
187.256	0.342	187.598	-0.0667123698017242	draw_card	0.342	columbia_card_task_fmri	9.0	0.9	89.0	-95.0	0.1	16.0	7.0	1.0	-1.2879530291380803	0.342	n/a	stim	poldrack-single-stim	s629	False	1
187.6	0.387	187.987	-1.2222679253572792	draw_card	0.387	columbia_card_task_fmri	9.0	0.8888888888888888	89.0	-95.0	0.1111111111111111	16.0	8.0	1.0	0.1948019105127088	0.387	n/a	stim	poldrack-single-stim	s629	False	1
187.99	0.448	188.438	-2.666712369801724	end_round	0.448	columbia_card_task_fmri	9.0	0.875	71.0	-95.0	0.125	16.0	9.0	1.0	1.9041711856698385	0.448	8.0	stim	poldrack-single-stim	s629	False	1
189.195	1.5	188.444	n/a	-1.0	2.522	columbia_card_task_fmri	n/a	n/a	-1.0	n/a	n/a	n/a	n/a	n/a	n/a	n/a	n/a	ITI	poldrack-single-stim	s629	False	0
190.969	1.626	192.595	5.395787630198276	draw_card	1.626	columbia_card_task_fmri	11.0	0.9375	89.0	-100.0	0.0625	16.0	1.0	1.0	-5.614546212444814	1.626	n/a	stim	poldrack-single-stim	s629	False	1
192.598	1.656	194.254	4.933287630198277	draw_card	1.656	columbia_card_task_fmri	11.0	0.9333333333333332	89.0	-100.0	0.0666666666666666	16.0	2.0	1.0	-4.796080783906625	1.656	n/a	stim	poldrack-single-stim	s629	False	1
194.257	0.211	194.468	4.404716201626849	draw_card	0.211	columbia_card_task_fmri	11.0	0.9285714285714286	89.0	-100.0	0.0714285714285714	16.0	3.0	1.0	-3.8984820000519136	0.211	n/a	stim	poldrack-single-stim	s629	False	1
194.471	0.173	194.644	3.7948260917367382	draw_card	0.173	columbia_card_task_fmri	11.0	0.9230769230769232	89.0	-100.0	0.0769230769230769	16.0	4.0	1.0	-2.908294747645773	0.173	n/a	stim	poldrack-single-stim	s629	False	1
194.646	1.238	195.884	3.083287630198276	draw_card	1.238	columbia_card_task_fmri	11.0	0.9166666666666666	89.0	-100.0	0.0833333333333333	16.0	5.0	1.0	-1.808690390062143	1.238	n/a	stim	poldrack-single-stim	s629	False	1
195.888	0.425	196.313	2.2423785392891844	end_round	0.425	columbia_card_task_fmri	11.0	0.9090909090909092	71.0	-100.0	0.0909090909090909	16.0	6.0	1.0	-0.5783298778685797	0.425	5.0	stim	poldrack-single-stim	s629	False	1
197.069	1.5	196.318	n/a	-1.0	3.134	columbia_card_task_fmri	n/a	n/a	-1.0	n/a	n/a	n/a	n/a	n/a	n/a	n/a	n/a	ITI	poldrack-single-stim	s629	False	0
199.455	1.037	200.492	5.958287630198276	draw_card	1.037	columbia_card_task_fmri	16.0	0.875	89.0	-75.0	0.125	16.0	1.0	2.0	-2.391487763552302	1.037	n/a	stim	poldrack-single-stim	s629	False	1
200.496	0.232	200.728	5.199954296864943	draw_card	0.232	columbia_card_task_fmri	16.0	0.8666666666666667	89.0	-75.0	0.1333333333333333	16.0	2.0	2.0	-1.553656731587914	0.232	n/a	stim	poldrack-single-stim	s629	False	1
200.73	0.323	201.053	4.333287630198278	draw_card	0.323	columbia_card_task_fmri	16.0	0.8571428571428572	89.0	-75.0	0.1428571428571428	16.0	3.0	2.0	-0.6451611776137014	0.323	3.0	stim	poldrack-single-stim	s629	False	0
201.806	1.5	201.055	n/a	-1.0	2.386	columbia_card_task_fmri	n/a	n/a	-1.0	n/a	n/a	n/a	n/a	n/a	n/a	n/a	n/a	ITI	poldrack-single-stim	s629	False	0
203.445	0.558	204.003	6.208287630198276	draw_card	0.558	columbia_card_task_fmri	17.0	0.875	89.0	-80.0	0.125	16.0	1.0	2.0	-0.4089985823158741	0.558	1.0	stim	poldrack-single-stim	s629	False	0
204.759	1.5	204.008	n/a	-1.0	2.386	columbia_card_task_fmri	n/a	n/a	-1.0	n/a	n/a	n/a	n/a	n/a	n/a	n/a	n/a	ITI	poldrack-single-stim	s629	False	0
217.403	0.865	218.268	0.4999542968649439	draw_card	0.865	columbia_card_task_fmri	13.0	0.8333333333333334	89.0	-70.0	0.1666666666666666	6.0	1.0	1.0	-1.5554331093251008	0.865	n/a	stim	poldrack-single-stim	s629	False	1
218.272	0.882	219.154	-2.2667123698017235	end_round	0.882	columbia_card_task_fmri	13.0	0.8	71.0	-70.0	0.2	6.0	2.0	1.0	0.7103330302942723	0.882	1.0	stim	poldrack-single-stim	s629	False	1
219.912	1.5	219.161	n/a	-1.0	2.318	columbia_card_task_fmri	n/a	n/a	-1.0	n/a	n/a	n/a	n/a	n/a	n/a	n/a	n/a	ITI	poldrack-single-stim	s629	False	0
221.483	0.418	221.901	0.4999542968649439	end_round	0.418	columbia_card_task_fmri	15.0	0.8333333333333334	71.0	-80.0	0.1666666666666666	6.0	1.0	1.0	2.9130776457166334	0.418	0.0	stim	poldrack-single-stim	s629	False	1
222.659	1.5	221.908	n/a	-1.0	2.318	columbia_card_task_fmri	n/a	n/a	-1.0	n/a	n/a	n/a	n/a	n/a	n/a	n/a	n/a	ITI	poldrack-single-stim	s629	False	0
224.229	0.318	224.547	2.16662096353161	draw_card	0.318	columbia_card_task_fmri	16.0	0.8333333333333334	89.0	-75.0	0.1666666666666666	6.0	1.0	1.0	1.4234679529286538	0.318	n/a	stim	poldrack-single-stim	s629	False	1
224.55	0.339	224.889	-0.8667123698017232	draw_card	0.339	columbia_card_task_fmri	16.0	0.8	89.0	-75.0	0.2	6.0	2.0	1.0	3.9079820550420408	0.339	n/a	stim	poldrack-single-stim	s629	False	1
224.892	0.29	225.182	-5.416712369801724	draw_card	0.29	columbia_card_task_fmri	16.0	0.75	89.0	-75.0	0.25	6.0	3.0	1.0	6.910278015016914	0.29	n/a	stim	poldrack-single-stim	s629	False	1
225.184	0.42	225.604	-13.000045703135056	draw_card	0.42	columbia_card_task_fmri	16.0	0.6666666666666667	89.0	-75.0	0.3333333333333333	6.0	4.0	1.0	10.402097937470984	0.42	n/a	stim	poldrack-single-stim	s629	False	1
225.608	0.415	226.023	-28.16671236980172	end_round	0.415	columbia_card_task_fmri	16.0	0.5	71.0	-75.0	0.5	6.0	5.0	1.0	13.003102378163234	0.415	4.0	stim	poldrack-single-stim	s629	False	1
226.776	1.5	226.025	n/a	-1.0	2.862	columbia_card_task_fmri	n/a	n/a	-1.0	n/a	n/a	n/a	n/a	n/a	n/a	n/a	n/a	ITI	poldrack-single-stim	s629	False	0
228.89	1.124	230.014	3.333287630198276	draw_card	1.124	columbia_card_task_fmri	21.0	0.75	89.0	-55.0	0.25	8.0	1.0	2.0	0.419534846537914	1.124	1.0	stim	poldrack-single-stim	s629	False	0
230.768	1.5	230.017	n/a	-1.0	2.726	columbia_card_task_fmri	n/a	n/a	-1.0	n/a	n/a	n/a	n/a	n/a	n/a	n/a	n/a	ITI	poldrack-single-stim	s629	False	0
232.748	0.484	233.232	4.583287630198276	draw_card	0.484	columbia_card_task_fmri	26.0	0.75	89.0	-65.0	0.25	8.0	1.0	2.0	6.910278015016914	0.484	1.0	stim	poldrack-single-stim	s629	False	0
233.986	1.5	233.235	n/a	-1.0	2.25	columbia_card_task_fmri	n/a	n/a	-1.0	n/a	n/a	n/a	n/a	n/a	n/a	n/a	n/a	ITI	poldrack-single-stim	s629	False	0
235.488	0.54	236.028	-0.3333790364683899	draw_card	0.54	columbia_card_task_fmri	15.0	0.7777777777777778	89.0	-60.0	0.2222222222222222	9.0	1.0	2.0	-1.3074569943375351	0.54	n/a	stim	poldrack-single-stim	s629	False	1
236.031	0.325	236.356	-2.416712369801724	draw_card	0.325	columbia_card_task_fmri	15.0	0.75	89.0	-60.0	0.25	9.0	2.0	2.0	-0.0131181881653148	0.325	2.0	stim	poldrack-single-stim	s629	False	0
237.111	1.5	236.36	n/a	-1.0	2.318	columbia_card_task_fmri	n/a	n/a	-1.0	n/a	n/a	n/a	n/a	n/a	n/a	n/a	n/a	ITI	poldrack-single-stim	s629	False	0
238.682	0.409	239.091	4.033287630198277	draw_card	0.409	columbia_card_task_fmri	13.0	0.9	89.0	-90.0	0.1	10.0	1.0	1.0	-1.5876768277983473	0.409	n/a	stim	poldrack-single-stim	s629	False	1
239.094	0.38	239.474	2.8888431857538315	draw_card	0.38	columbia_card_task_fmri	13.0	0.8888888888888888	89.0	-90.0	0.1111111111111111	10.0	2.0	1.0	-0.11920407751942	0.38	n/a	stim	poldrack-single-stim	s629	False	1
239.477	0.464	239.941	1.458287630198276	end_round	0.464	columbia_card_task_fmri	13.0	0.875	71.0	-90.0	0.125	10.0	3.0	1.0	1.5737028793841858	0.464	2.0	stim	poldrack-single-stim	s629	False	1
240.699	1.5	239.948	n/a	-1.0	2.454	columbia_card_task_fmri	n/a	n/a	-1.0	n/a	n/a	n/a	n/a	n/a	n/a	n/a	n/a	ITI	poldrack-single-stim	s629	False	0
242.407	1.069	243.476	5.333287630198276	draw_card	1.069	columbia_card_task_fmri	15.0	0.9	89.0	-95.0	0.1	10.0	1.0	1.0	0.5104950872091791	1.069	n/a	stim	poldrack-single-stim	s629	False	1
243.479	0.434	243.913	4.111065407976053	draw_card	0.434	columbia_card_task_fmri	15.0	0.8888888888888888	89.0	-95.0	0.1111111111111111	10.0	2.0	1.0	2.078938404433231	0.434	n/a	stim	poldrack-single-stim	s629	False	1
243.916	0.224	244.14	2.583287630198276	draw_card	0.224	columbia_card_task_fmri	15.0	0.875	89.0	-95.0	0.125	10.0	3.0	1.0	3.8870766096178144	0.224	n/a	stim	poldrack-single-stim	s629	False	1
244.143	0.262	244.405	0.6190019159125626	draw_card	0.262	columbia_card_task_fmri	15.0	0.8571428571428572	89.0	-95.0	0.1428571428571428	10.0	4.0	1.0	5.998637889301008	0.262	n/a	stim	poldrack-single-stim	s629	False	1
244.408	0.206	244.614	-2.000045703135056	draw_card	0.206	columbia_card_task_fmri	15.0	0.8333333333333334	89.0	-95.0	0.1666666666666666	10.0	5.0	1.0	8.499827343448388	0.206	n/a	stim	poldrack-single-stim	s629	False	1
244.618	0.416	245.034	-5.666712369801724	end_round	0.416	columbia_card_task_fmri	15.0	0.8	71.0	-95.0	0.2	10.0	6.0	1.0	11.5037678898386	0.416	5.0	stim	poldrack-single-stim	s629	False	1
245.789	1.5	245.038	n/a	-1.0	2.522	columbia_card_task_fmri	n/a	n/a	-1.0	n/a	n/a	n/a	n/a	n/a	n/a	n/a	n/a	ITI	poldrack-single-stim	s629	False	0
247.564	1.118	248.682	1.1332876301982768	draw_card	1.118	columbia_card_task_fmri	16.0	0.8	89.0	-65.0	0.2	10.0	1.0	2.0	-0.0890067528382871	1.118	n/a	stim	poldrack-single-stim	s629	False	1
248.685	0.231	248.916	-0.6667123698017221	draw_card	0.231	columbia_card_task_fmri	16.0	0.7777777777777778	89.0	-65.0	0.2222222222222222	10.0	2.0	2.0	1.1848723971574486	0.231	n/a	stim	poldrack-single-stim	s629	False	1
248.919	0.2	249.119	-2.916712369801724	draw_card	0.2	columbia_card_task_fmri	16.0	0.75	89.0	-65.0	0.25	10.0	3.0	2.0	2.582933078951015	0.2	n/a	stim	poldrack-single-stim	s629	False	1
249.122	0.35	249.472	-5.8095695126588645	end_round	0.35	columbia_card_task_fmri	16.0	0.7142857142857143	71.0	-65.0	0.2857142857142857	10.0	4.0	2.0	4.099924080077251	0.35	3.0	stim	poldrack-single-stim	s629	False	1
250.227	1.5	249.476	n/a	-1.0	2.318	columbia_card_task_fmri	n/a	n/a	-1.0	n/a	n/a	n/a	n/a	n/a	n/a	n/a	n/a	ITI	poldrack-single-stim	s629	False	0
251.798	0.997	252.795	-0.1667123698017238	end_round	0.997	columbia_card_task_fmri	7.0	0.9166666666666666	71.0	-95.0	0.0833333333333333	12.0	1.0	1.0	-4.293606566454994	0.997	0.0	stim	poldrack-single-stim	s629	False	1
253.549	1.5	252.798	n/a	-1.0	2.522	columbia_card_task_fmri	n/a	n/a	-1.0	n/a	n/a	n/a	n/a	n/a	n/a	n/a	n/a	ITI	poldrack-single-stim	s629	False	0
255.324	0.089	255.413	0.4999542968649439	draw_card	0.089	columbia_card_task_fmri	14.0	0.8333333333333334	89.0	-75.0	0.1666666666666666	12.0	1.0	2.0	0.6787002187636517	0.089	n/a	stim	poldrack-single-stim	s629	False	1
255.417	0.339	255.756	-0.8485305516199073	draw_card	0.339	columbia_card_task_fmri	14.0	0.8181818181818181	89.0	-75.0	0.1818181818181818	12.0	2.0	2.0	1.8362753409007269	0.339	n/a	stim	poldrack-single-stim	s629	False	1
255.759	0.179	255.938	-2.466712369801723	draw_card	0.179	columbia_card_task_fmri	14.0	0.8	89.0	-75.0	0.2	12.0	3.0	2.0	3.108530218003075	0.179	n/a	stim	poldrack-single-stim	s629	False	1
255.941	0.175	256.116	-4.444490147579499	draw_card	0.175	columbia_card_task_fmri	14.0	0.7777777777777778	89.0	-75.0	0.2222222222222222	12.0	4.0	2.0	4.508420090441355	0.175	n/a	stim	poldrack-single-stim	s629	False	1
256.119	0.217	256.336	-6.916712369801724	draw_card	0.217	columbia_card_task_fmri	14.0	0.75	89.0	-75.0	0.25	12.0	5.0	2.0	6.04475905882618	0.217	n/a	stim	poldrack-single-stim	s629	False	1
256.339	0.353	256.692	-10.095283798373153	draw_card	0.353	columbia_card_task_fmri	14.0	0.7142857142857143	89.0	-75.0	0.2857142857142857	12.0	6.0	2.0	7.711774287231279	0.353	n/a	stim	poldrack-single-stim	s629	False	1
256.695	0.312	257.007	-14.33337903646839	draw_card	0.312	columbia_card_task_fmri	14.0	0.6666666666666667	89.0	-75.0	0.3333333333333333	12.0	7.0	2.0	9.459754161477656	0.312	n/a	stim	poldrack-single-stim	s629	False	1
257.01	0.401	257.411	-20.266712369801724	end_round	0.401	columbia_card_task_fmri	14.0	0.6	71.0	-75.0	0.4	12.0	8.0	2.0	11.104870080959133	0.401	7.0	stim	poldrack-single-stim	s629	False	1
258.166	1.5	257.415	n/a	-1.0	2.998	columbia_card_task_fmri	n/a	n/a	-1.0	n/a	n/a	n/a	n/a	n/a	n/a	n/a	n/a	ITI	poldrack-single-stim	s629	False	0
260.417	1.017	261.434	2.16662096353161	draw_card	1.017	columbia_card_task_fmri	15.0	0.8333333333333334	89.0	-70.0	0.1666666666666666	12.0	1.0	2.0	-0.8107523074280643	1.017	n/a	stim	poldrack-single-stim	s629	False	1
261.438	0.211	261.649	0.8787421756528193	draw_card	0.211	columbia_card_task_fmri	15.0	0.8181818181818181	89.0	-70.0	0.1818181818181818	12.0	2.0	2.0	0.2947139655862258	0.211	2.0	stim	poldrack-single-stim	s629	False	0
262.404	1.5	261.653	n/a	-1.0	2.318	columbia_card_task_fmri	n/a	n/a	-1.0	n/a	n/a	n/a	n/a	n/a	n/a	n/a	n/a	ITI	poldrack-single-stim	s629	False	0
263.975	0.516	264.491	0.1332876301982768	draw_card	0.516	columbia_card_task_fmri	16.0	0.8	89.0	-70.0	0.2	15.0	1.0	3.0	1.9094002151552656	0.516	n/a	stim	poldrack-single-stim	s629	False	1
264.495	0.339	264.834	-1.0952837983731527	draw_card	0.339	columbia_card_task_fmri	16.0	0.7857142857142857	89.0	-70.0	0.2142857142857142	15.0	2.0	3.0	2.7967783973596383	0.339	n/a	stim	poldrack-single-stim	s629	False	1
264.838	0.661	265.499	-2.5128662159555706	draw_card	0.661	columbia_card_task_fmri	16.0	0.7692307692307692	89.0	-70.0	0.2307692307692307	15.0	3.0	3.0	3.742047646095905	0.661	3.0	stim	poldrack-single-stim	s629	False	0
266.253	1.5	265.502	n/a	-1.0	2.25	columbia_card_task_fmri	n/a	n/a	-1.0	n/a	n/a	n/a	n/a	n/a	n/a	n/a	n/a	ITI	poldrack-single-stim	s629	False	0
267.756	0.489	268.245	0.5207876301982761	draw_card	0.489	columbia_card_task_fmri	14.0	0.8125	89.0	-65.0	0.1875	16.0	1.0	3.0	-1.6529383587364457	0.489	n/a	stim	poldrack-single-stim	s629	False	1
268.249	0.298	268.547	-0.4667123698017228	draw_card	0.298	columbia_card_task_fmri	14.0	0.8	89.0	-65.0	0.2	16.0	2.0	3.0	-0.8883131507482425	0.298	n/a	stim	poldrack-single-stim	s629	False	1
268.55	0.169	268.719	-1.595283798373151	draw_card	0.169	columbia_card_task_fmri	14.0	0.7857142857142857	89.0	-65.0	0.2142857142857142	16.0	3.0	3.0	-0.0732736992496398	0.169	n/a	stim	poldrack-single-stim	s629	False	1
268.723	0.196	268.919	-2.897481600570956	draw_card	0.196	columbia_card_task_fmri	14.0	0.7692307692307692	89.0	-65.0	0.2307692307692307	16.0	4.0	3.0	0.7949434972949803	0.196	n/a	stim	poldrack-single-stim	s629	False	1
268.922	0.288	269.21	-4.416712369801724	draw_card	0.288	columbia_card_task_fmri	14.0	0.75	89.0	-65.0	0.25	16.0	5.0	3.0	1.7175485195596991	0.288	n/a	stim	poldrack-single-stim	s629	False	1
269.213	0.251	269.464	-6.212166915256269	draw_card	0.251	columbia_card_task_fmri	14.0	0.7272727272727273	89.0	-65.0	0.2727272727272727	16.0	6.0	3.0	2.6924053468613707	0.251	6.0	stim	poldrack-single-stim	s629	False	0
270.22	1.5	269.469	n/a	-1.0	2.454	columbia_card_task_fmri	n/a	n/a	-1.0	n/a	n/a	n/a	n/a	n/a	n/a	n/a	n/a	ITI	poldrack-single-stim	s629	False	0
271.927	0.429	272.356	0.2707876301982761	end_round	0.429	columbia_card_task_fmri	16.0	0.8125	71.0	-75.0	0.1875	16.0	1.0	3.0	3.0270136144873803	0.429	0.0	stim	poldrack-single-stim	s629	False	1
273.113	1.5	272.362	n/a	-1.0	2.318	columbia_card_task_fmri	n/a	n/a	-1.0	n/a	n/a	n/a	n/a	n/a	n/a	n/a	n/a	ITI	poldrack-single-stim	s629	False	0
274.684	0.398	275.082	4.533287630198277	draw_card	0.398	columbia_card_task_fmri	16.0	0.8666666666666667	89.0	-80.0	0.1333333333333333	15.0	1.0	2.0	0.144521904883085	0.398	1.0	stim	poldrack-single-stim	s629	False	0
275.839	1.5	275.088	n/a	-1.0	2.318	columbia_card_task_fmri	n/a	n/a	-1.0	n/a	n/a	n/a	n/a	n/a	n/a	n/a	n/a	ITI	poldrack-single-stim	s629	False	0
277.41	0.449	277.859	5.399954296864944	draw_card	0.449	columbia_card_task_fmri	17.0	0.8666666666666667	89.0	-80.0	0.1333333333333333	15.0	1.0	2.0	0.4841760980535241	0.449	n/a	stim	poldrack-single-stim	s629	False	1
277.862	0.589	278.451	4.476144773055422	draw_card	0.589	columbia_card_task_fmri	17.0	0.8571428571428572	89.0	-80.0	0.1428571428571428	15.0	2.0	2.0	1.4526770423745037	0.589	n/a	stim	poldrack-single-stim	s629	False	1
278.454	0.269	278.723	3.4102107071213528	draw_card	0.269	columbia_card_task_fmri	17.0	0.8461538461538461	89.0	-80.0	0.1538461538461538	15.0	3.0	2.0	2.50667701445893	0.269	n/a	stim	poldrack-single-stim	s629	False	1
278.726	0.238	278.964	2.166620963531612	draw_card	0.238	columbia_card_task_fmri	17.0	0.8333333333333334	89.0	-80.0	0.1666666666666666	15.0	4.0	2.0	3.657916547878792	0.238	n/a	stim	poldrack-single-stim	s629	False	1
278.967	0.169	279.136	0.6969239938346377	draw_card	0.169	columbia_card_task_fmri	17.0	0.8181818181818181	89.0	-80.0	0.1818181818181818	15.0	5.0	2.0	4.919698910346362	0.169	n/a	stim	poldrack-single-stim	s629	False	1
279.14	0.251	279.391	-1.0667123698017225	draw_card	0.251	columbia_card_task_fmri	17.0	0.8	89.0	-80.0	0.2	15.0	6.0	2.0	6.3064730679001855	0.251	n/a	stim	poldrack-single-stim	s629	False	1
279.394	0.424	279.818	-3.2222679253572792	draw_card	0.424	columbia_card_task_fmri	17.0	0.7777777777777778	89.0	-80.0	0.2222222222222222	15.0	7.0	2.0	7.832358358093963	0.424	n/a	stim	poldrack-single-stim	s629	False	1
279.82	0.31	280.13	-5.916712369801724	draw_card	0.31	columbia_card_task_fmri	17.0	0.75	89.0	-80.0	0.25	15.0	8.0	2.0	9.506960090691877	0.31	8.0	stim	poldrack-single-stim	s629	False	0
280.884	1.5	280.133	n/a	-1.0	2.59	columbia_card_task_fmri	n/a	n/a	-1.0	n/a	n/a	n/a	n/a	n/a	n/a	n/a	n/a	ITI	poldrack-single-stim	s629	False	0
282.727	1.521	284.248	1.333287630198276	draw_card	1.521	columbia_card_task_fmri	1.0	0.9375	89.0	-15.0	0.0625	16.0	1.0	1.0	-28.42037441149228	1.521	n/a	stim	poldrack-single-stim	s629	False	1
284.251	0.235	284.486	1.2666209635316097	draw_card	0.235	columbia_card_task_fmri	1.0	0.9333333333333332	89.0	-15.0	0.0666666666666666	16.0	2.0	1.0	-28.30851356834823	0.235	n/a	stim	poldrack-single-stim	s629	False	1
284.489	0.228	284.717	1.190430487341133	draw_card	0.228	columbia_card_task_fmri	1.0	0.9285714285714286	89.0	-15.0	0.0714285714285714	16.0	3.0	1.0	-28.18546427528876	0.228	n/a	stim	poldrack-single-stim	s629	False	1
284.72	0.392	285.112	1.1025183994290453	end_round	0.392	columbia_card_task_fmri	1.0	0.9230769230769232	71.0	-15.0	0.0769230769230769	16.0	4.0	1.0	-28.049307035570106	0.392	3.0	stim	poldrack-single-stim	s629	False	1
285.87	1.5	285.119	n/a	-1.0	2.25	columbia_card_task_fmri	n/a	n/a	-1.0	n/a	n/a	n/a	n/a	n/a	n/a	n/a	n/a	ITI	poldrack-single-stim	s629	False	0
287.373	0.996	288.369	4.458287630198276	draw_card	0.996	columbia_card_task_fmri	10.0	0.9375	89.0	-100.0	0.0625	16.0	1.0	1.0	-5.856307501116202	0.996	n/a	stim	poldrack-single-stim	s629	False	1
288.372	0.376	288.748	3.999954296864943	draw_card	0.376	columbia_card_task_fmri	10.0	0.9333333333333332	89.0	-100.0	0.0666666666666666	16.0	2.0	1.0	-5.045233291274499	0.376	n/a	stim	poldrack-single-stim	s629	False	1
288.752	0.357	289.109	3.47614477305542	draw_card	0.357	columbia_card_task_fmri	10.0	0.9285714285714286	89.0	-100.0	0.0714285714285714	16.0	3.0	1.0	-4.155739185243178	0.357	3.0	stim	poldrack-single-stim	s629	False	0
289.865	1.5	289.114	n/a	-1.0	2.25	columbia_card_task_fmri	n/a	n/a	-1.0	n/a	n/a	n/a	n/a	n/a	n/a	n/a	n/a	ITI	poldrack-single-stim	s629	False	0
291.368	1.544	292.912	5.083287630198276	draw_card	1.544	columbia_card_task_fmri	15.0	0.875	89.0	-75.0	0.125	16.0	1.0	2.0	-2.721879013271966	1.544	1.0	stim	poldrack-single-stim	s629	False	0
293.667	1.5	292.916	n/a	-1.0	2.522	columbia_card_task_fmri	n/a	n/a	-1.0	n/a	n/a	n/a	n/a	n/a	n/a	n/a	n/a	ITI	poldrack-single-stim	s629	False	0
295.443	0.399	295.842	5.333287630198276	draw_card	0.399	columbia_card_task_fmri	16.0	0.875	89.0	-80.0	0.125	16.0	1.0	2.0	-0.7394292605883805	0.399	n/a	stim	poldrack-single-stim	s629	False	1
295.846	0.383	296.229	4.533287630198277	draw_card	0.383	columbia_card_task_fmri	16.0	0.8666666666666667	89.0	-80.0	0.1333333333333333	16.0	2.0	2.0	0.144521904883085	0.383	2.0	stim	poldrack-single-stim	s629	False	0
296.987	1.5	296.236	n/a	-1.0	2.454	columbia_card_task_fmri	n/a	n/a	-1.0	n/a	n/a	n/a	n/a	n/a	n/a	n/a	n/a	ITI	poldrack-single-stim	s629	False	0
298.695	0.334	299.029	2.520787630198276	draw_card	0.334	columbia_card_task_fmri	4.0	0.6875	89.0	-5.0	0.3125	16.0	1.0	5.0	-28.13693046177627	0.334	1.0	stim	poldrack-single-stim	s629	False	0
299.785	1.5	299.034	n/a	-1.0	2.25	columbia_card_task_fmri	n/a	n/a	-1.0	n/a	n/a	n/a	n/a	n/a	n/a	n/a	n/a	ITI	poldrack-single-stim	s629	False	0
301.289	0.553	301.842	-0.3333790364683882	draw_card	0.553	columbia_card_task_fmri	14.0	0.8333333333333334	89.0	-80.0	0.1666666666666666	6.0	1.0	1.0	2.540666437248234	0.553	n/a	stim	poldrack-single-stim	s629	False	1
301.846	0.34	302.186	-3.466712369801723	draw_card	0.34	columbia_card_task_fmri	14.0	0.8	89.0	-80.0	0.2	6.0	2.0	1.0	5.107203504586472	0.34	n/a	stim	poldrack-single-stim	s629	False	1
302.19	0.195	302.385	-8.166712369801724	draw_card	0.195	columbia_card_task_fmri	14.0	0.75	89.0	-80.0	0.25	6.0	3.0	1.0	8.20859682390578	0.195	3.0	stim	poldrack-single-stim	s629	False	0
303.144	1.5	302.393	n/a	-1.0	2.454	columbia_card_task_fmri	n/a	n/a	-1.0	n/a	n/a	n/a	n/a	n/a	n/a	n/a	n/a	ITI	poldrack-single-stim	s629	False	0
304.85	0.979	305.829	1.333287630198276	draw_card	0.979	columbia_card_task_fmri	15.0	0.8333333333333334	89.0	-75.0	0.1666666666666666	6.0	1.0	1.0	1.0510808216120466	0.979	n/a	stim	poldrack-single-stim	s629	False	1
305.833	0.417	306.25	-1.666712369801724	end_round	0.417	columbia_card_task_fmri	15.0	0.8	71.0	-75.0	0.2	6.0	2.0	1.0	3.5082530943019563	0.417	1.0	stim	poldrack-single-stim	s629	False	1
307.005	1.5	306.254	n/a	-1.0	2.454	columbia_card_task_fmri	n/a	n/a	-1.0	n/a	n/a	n/a	n/a	n/a	n/a	n/a	n/a	ITI	poldrack-single-stim	s629	False	0
308.712	0.507	309.219	2.999954296864944	draw_card	0.507	columbia_card_task_fmri	16.0	0.8333333333333334	89.0	-70.0	0.1666666666666666	6.0	1.0	1.0	-0.4384001454032358	0.507	n/a	stim	poldrack-single-stim	s629	False	1
309.223	0.509	309.732	0.1332876301982768	draw_card	0.509	columbia_card_task_fmri	16.0	0.8	89.0	-70.0	0.2	6.0	2.0	1.0	1.9094002151552656	0.509	n/a	stim	poldrack-single-stim	s629	False	1
309.735	0.391	310.126	-4.166712369801724	end_round	0.391	columbia_card_task_fmri	16.0	0.75	71.0	-70.0	0.25	6.0	3.0	1.0	4.746524750320177	0.391	2.0	stim	poldrack-single-stim	s629	False	1
310.884	1.5	310.133	n/a	-1.0	2.522	columbia_card_task_fmri	n/a	n/a	-1.0	n/a	n/a	n/a	n/a	n/a	n/a	n/a	n/a	ITI	poldrack-single-stim	s629	False	0
312.659	1.307	313.966	3.583287630198276	draw_card	1.307	columbia_card_task_fmri	23.0	0.75	89.0	-60.0	0.25	8.0	1.0	2.0	3.4483484897738705	1.307	n/a	stim	poldrack-single-stim	s629	False	1
313.969	0.295	314.264	0.6190019159125644	draw_card	0.295	columbia_card_task_fmri	23.0	0.7142857142857143	89.0	-60.0	0.2857142857142857	8.0	2.0	2.0	5.00284724570411	0.295	n/a	stim	poldrack-single-stim	s629	False	1
314.267	0.194	314.461	-3.333379036468388	draw_card	0.194	columbia_card_task_fmri	23.0	0.6666666666666667	89.0	-60.0	0.3333333333333333	8.0	3.0	2.0	6.632857257137822	0.194	3.0	stim	poldrack-single-stim	s629	False	0
315.216	1.5	314.465	n/a	-1.0	2.454	columbia_card_task_fmri	n/a	n/a	-1.0	n/a	n/a	n/a	n/a	n/a	n/a	n/a	n/a	ITI	poldrack-single-stim	s629	False	0
316.924	0.496	317.42	4.083287630198276	draw_card	0.496	columbia_card_task_fmri	27.0	0.75	89.0	-70.0	0.25	8.0	1.0	2.0	9.506960090691877	0.496	n/a	stim	poldrack-single-stim	s629	False	1
317.423	0.198	317.621	0.6190019159125608	draw_card	0.198	columbia_card_task_fmri	27.0	0.7142857142857143	89.0	-70.0	0.2857142857142857	8.0	2.0	2.0	11.323984040172869	0.198	n/a	stim	poldrack-single-stim	s629	False	1
317.625	0.25	317.875	-4.0000457031350525	end_round	0.25	columbia_card_task_fmri	27.0	0.6666666666666667	71.0	-70.0	0.3333333333333333	8.0	3.0	2.0	13.229244305557543	0.25	2.0	stim	poldrack-single-stim	s629	False	1
318.634	1.5	317.883	n/a	-1.0	2.658	columbia_card_task_fmri	n/a	n/a	-1.0	n/a	n/a	n/a	n/a	n/a	n/a	n/a	n/a	ITI	poldrack-single-stim	s629	False	0
320.546	1.153	321.699	-0.6667123698017221	draw_card	1.153	columbia_card_task_fmri	16.0	0.7777777777777778	89.0	-65.0	0.2222222222222222	9.0	1.0	2.0	1.1848723971574486	1.153	n/a	stim	poldrack-single-stim	s629	False	1
321.703	0.261	321.964	-2.916712369801724	draw_card	0.261	columbia_card_task_fmri	16.0	0.75	89.0	-65.0	0.25	9.0	2.0	2.0	2.582933078951015	0.261	2.0	stim	poldrack-single-stim	s629	False	0
322.721	1.5	321.97	n/a	-1.0	2.386	columbia_card_task_fmri	n/a	n/a	-1.0	n/a	n/a	n/a	n/a	n/a	n/a	n/a	n/a	ITI	poldrack-single-stim	s629	False	0
324.36	0.986	325.346	4.533287630198277	draw_card	0.986	columbia_card_task_fmri	13.0	0.9	89.0	-85.0	0.1	10.0	1.0	1.0	-3.086211395241108	0.986	n/a	stim	poldrack-single-stim	s629	False	1
325.351	0.197	325.548	3.444398741309387	draw_card	0.197	columbia_card_task_fmri	13.0	0.8888888888888888	89.0	-85.0	0.1111111111111111	10.0	2.0	1.0	-1.6891534047503107	0.197	n/a	stim	poldrack-single-stim	s629	False	1
325.551	0.195	325.746	2.083287630198276	draw_card	0.195	columbia_card_task_fmri	13.0	0.875	89.0	-85.0	0.125	10.0	3.0	1.0	-0.0785620292156892	0.195	n/a	stim	poldrack-single-stim	s629	False	1
325.75	0.189	325.939	0.3332876301982779	draw_card	0.189	columbia_card_task_fmri	13.0	0.8571428571428572	89.0	-85.0	0.1428571428571428	10.0	4.0	1.0	1.8023372505598303	0.189	n/a	stim	poldrack-single-stim	s629	False	1
325.944	0.184	326.128	-2.000045703135056	draw_card	0.184	columbia_card_task_fmri	13.0	0.8333333333333334	89.0	-85.0	0.1666666666666666	10.0	5.0	1.0	4.030343905596581	0.184	n/a	stim	poldrack-single-stim	s629	False	1
326.13	0.282	326.412	-5.266712369801724	draw_card	0.282	columbia_card_task_fmri	13.0	0.8	89.0	-85.0	0.2	10.0	6.0	1.0	6.706239518153936	0.282	n/a	stim	poldrack-single-stim	s629	False	1
326.416	0.198	326.614	-10.166712369801724	draw_card	0.198	columbia_card_task_fmri	13.0	0.75	89.0	-85.0	0.25	10.0	7.0	1.0	9.939757020857549	0.198	n/a	stim	poldrack-single-stim	s629	False	1
326.617	0.732	327.349	-18.333379036468383	end_round	0.732	columbia_card_task_fmri	13.0	0.6666666666666667	71.0	-85.0	0.3333333333333333	10.0	8.0	1.0	13.70045060421436	0.732	7.0	stim	poldrack-single-stim	s629	False	1
328.106	1.5	327.355	n/a	-1.0	2.522	columbia_card_task_fmri	n/a	n/a	-1.0	n/a	n/a	n/a	n/a	n/a	n/a	n/a	n/a	ITI	poldrack-single-stim	s629	False	0
329.881	0.908	330.789	-0.4667123698017228	draw_card	0.908	columbia_card_task_fmri	14.0	0.8	89.0	-65.0	0.2	10.0	1.0	2.0	-0.8883131507482425	0.908	n/a	stim	poldrack-single-stim	s629	False	1
330.793	0.187	330.98	-2.222267925357277	draw_card	0.187	columbia_card_task_fmri	14.0	0.7777777777777778	89.0	-65.0	0.2222222222222222	10.0	2.0	2.0	0.3540603849887773	0.187	n/a	stim	poldrack-single-stim	s629	False	1
330.984	0.209	331.193	-4.416712369801724	draw_card	0.209	columbia_card_task_fmri	14.0	0.75	89.0	-65.0	0.25	10.0	3.0	2.0	1.7175485195596991	0.209	3.0	stim	poldrack-single-stim	s629	False	0
331.947	1.5	331.196	n/a	-1.0	2.59	columbia_card_task_fmri	n/a	n/a	-1.0	n/a	n/a	n/a	n/a	n/a	n/a	n/a	n/a	ITI	poldrack-single-stim	s629	False	0
333.793	0.342	334.135	0.9332876301982777	draw_card	0.342	columbia_card_task_fmri	17.0	0.8	89.0	-70.0	0.2	10.0	1.0	2.0	2.3091035567627287	0.342	1.0	stim	poldrack-single-stim	s629	False	0
334.892	1.5	334.141	n/a	-1.0	2.386	columbia_card_task_fmri	n/a	n/a	-1.0	n/a	n/a	n/a	n/a	n/a	n/a	n/a	n/a	ITI	poldrack-single-stim	s629	False	0
336.532	0.35	336.882	-0.3333790364683899	end_round	0.35	columbia_card_task_fmri	13.0	0.8333333333333334	71.0	-75.0	0.1666666666666666	12.0	1.0	2.0	0.3063263665837397	0.35	0.0	stim	poldrack-single-stim	s629	False	1
337.638	1.5	336.887	n/a	-1.0	2.59	columbia_card_task_fmri	n/a	n/a	-1.0	n/a	n/a	n/a	n/a	n/a	n/a	n/a	n/a	ITI	poldrack-single-stim	s629	False	0
339.483	0.89	340.373	1.333287630198278	draw_card	0.89	columbia_card_task_fmri	14.0	0.8333333333333334	89.0	-70.0	0.1666666666666666	12.0	1.0	2.0	-1.1830967219091877	0.89	n/a	stim	poldrack-single-stim	s629	False	1
340.376	0.484	340.86	0.0605603574710009	draw_card	0.484	columbia_card_task_fmri	14.0	0.8181818181818181	89.0	-70.0	0.1818181818181818	12.0	2.0	2.0	-0.0906582897337102	0.484	n/a	stim	poldrack-single-stim	s629	False	1
340.865	0.221	341.086	-1.4667123698017228	draw_card	0.221	columbia_card_task_fmri	14.0	0.8	89.0	-70.0	0.2	12.0	3.0	2.0	1.110014697317581	0.221	n/a	stim	poldrack-single-stim	s629	False	1
341.091	0.384	341.475	-3.33337903646839	end_round	0.384	columbia_card_task_fmri	14.0	0.7777777777777778	71.0	-70.0	0.2222222222222222	12.0	4.0	2.0	2.4311499381013637	0.384	3.0	stim	poldrack-single-stim	s629	False	1
342.23	1.5	341.479	n/a	-1.0	2.318	columbia_card_task_fmri	n/a	n/a	-1.0	n/a	n/a	n/a	n/a	n/a	n/a	n/a	n/a	ITI	poldrack-single-stim	s629	False	0
343.801	0.604	344.405	1.333287630198278	draw_card	0.604	columbia_card_task_fmri	16.0	0.8333333333333334	89.0	-80.0	0.1666666666666666	12.0	1.0	2.0	3.2854944064207103	0.604	n/a	stim	poldrack-single-stim	s629	False	1
344.41	0.213	344.623	-0.1212578243471806	draw_card	0.213	columbia_card_task_fmri	16.0	0.8181818181818181	89.0	-80.0	0.1818181818181818	12.0	2.0	2.0	4.534251539396578	0.213	n/a	stim	poldrack-single-stim	s629	False	1
344.629	0.377	345.006	-1.8667123698017232	draw_card	0.377	columbia_card_task_fmri	16.0	0.8	89.0	-80.0	0.2	12.0	3.0	2.0	5.906711478916641	0.377	n/a	stim	poldrack-single-stim	s629	False	1
345.011	0.193	345.204	-4.000045703135058	draw_card	0.193	columbia_card_task_fmri	16.0	0.7777777777777778	89.0	-80.0	0.2222222222222222	12.0	4.0	2.0	7.416848048573158	0.193	n/a	stim	poldrack-single-stim	s629	False	1
345.207	0.308	345.515	-6.666712369801724	draw_card	0.308	columbia_card_task_fmri	16.0	0.75	89.0	-80.0	0.25	12.0	5.0	2.0	9.074167652340895	0.308	n/a	stim	poldrack-single-stim	s629	False	1
345.519	0.376	345.895	-10.09528379837315	end_round	0.376	columbia_card_task_fmri	16.0	0.7142857142857143	71.0	-80.0	0.2857142857142857	12.0	6.0	2.0	10.872441227600874	0.376	5.0	stim	poldrack-single-stim	s629	False	1
346.65	1.5	345.899	n/a	-1.0	2.25	columbia_card_task_fmri	n/a	n/a	-1.0	n/a	n/a	n/a	n/a	n/a	n/a	n/a	n/a	ITI	poldrack-single-stim	s629	False	0
348.154	0.549	348.703	1.1332876301982768	draw_card	0.549	columbia_card_task_fmri	16.0	0.8	89.0	-65.0	0.2	15.0	1.0	3.0	-0.0890067528382871	0.549	n/a	stim	poldrack-single-stim	s629	False	1
348.707	0.287	348.994	-0.0238552269445797	draw_card	0.287	columbia_card_task_fmri	16.0	0.7857142857142857	89.0	-65.0	0.2142857142857142	15.0	2.0	3.0	0.7467019161932953	0.287	n/a	stim	poldrack-single-stim	s629	False	1
348.996	0.179	349.175	-1.3590200621094173	draw_card	0.179	columbia_card_task_fmri	16.0	0.7692307692307692	89.0	-65.0	0.2307692307692307	15.0	3.0	3.0	1.6369350053116705	0.179	n/a	stim	poldrack-single-stim	s629	False	1
349.179	0.376	349.555	-2.916712369801724	draw_card	0.376	columbia_card_task_fmri	16.0	0.75	89.0	-65.0	0.25	15.0	4.0	3.0	2.582933078951015	0.376	n/a	stim	poldrack-single-stim	s629	False	1
349.558	0.32	349.878	-4.757621460710814	end_round	0.32	columbia_card_task_fmri	16.0	0.7272727272727273	71.0	-65.0	0.2727272727272727	15.0	5.0	3.0	3.582505776921707	0.32	4.0	stim	poldrack-single-stim	s629	False	1
350.633	1.5	349.882	n/a	-1.0	2.454	columbia_card_task_fmri	n/a	n/a	-1.0	n/a	n/a	n/a	n/a	n/a	n/a	n/a	n/a	ITI	poldrack-single-stim	s629	False	0
352.34	0.894	353.234	-0.5417123698017239	draw_card	0.894	columbia_card_task_fmri	15.0	0.8125	89.0	-75.0	0.1875	16.0	1.0	3.0	2.636978991906787	0.894	n/a	stim	poldrack-single-stim	s629	False	1
353.238	0.478	353.716	-1.666712369801724	draw_card	0.478	columbia_card_task_fmri	15.0	0.8	89.0	-75.0	0.2	16.0	2.0	3.0	3.5082530943019563	0.478	2.0	stim	poldrack-single-stim	s629	False	0
354.473	1.5	353.722	n/a	-1.0	3.27	columbia_card_task_fmri	n/a	n/a	-1.0	n/a	n/a	n/a	n/a	n/a	n/a	n/a	n/a	ITI	poldrack-single-stim	s629	False	0
356.997	0.338	357.335	0.0207876301982761	draw_card	0.338	columbia_card_task_fmri	14.0	0.6875	89.0	-35.0	0.3125	16.0	1.0	5.0	-9.765219358950333	0.338	n/a	stim	poldrack-single-stim	s629	False	1
357.34	0.294	357.634	-1.000045703135056	draw_card	0.294	columbia_card_task_fmri	14.0	0.6666666666666667	89.0	-35.0	0.3333333333333333	16.0	2.0	5.0	-9.379159225383606	0.294	2.0	stim	poldrack-single-stim	s629	False	0
358.389	1.5	357.638	n/a	-1.0	2.25	columbia_card_task_fmri	n/a	n/a	-1.0	n/a	n/a	n/a	n/a	n/a	n/a	n/a	n/a	ITI	poldrack-single-stim	s629	False	0
359.893	0.398	360.291	5.199954296864943	draw_card	0.398	columbia_card_task_fmri	16.0	0.8666666666666667	89.0	-75.0	0.1333333333333333	15.0	1.0	2.0	-1.553656731587914	0.398	n/a	stim	poldrack-single-stim	s629	False	1
360.296	0.273	360.569	4.333287630198278	end_round	0.273	columbia_card_task_fmri	16.0	0.8571428571428572	71.0	-75.0	0.1428571428571428	15.0	2.0	2.0	-0.6451611776137014	0.273	1.0	stim	poldrack-single-stim	s629	False	1
361.325	1.5	360.574	n/a	-1.0	2.25	columbia_card_task_fmri	n/a	n/a	-1.0	n/a	n/a	n/a	n/a	n/a	n/a	n/a	n/a	ITI	poldrack-single-stim	s629	False	0
362.829	0.61	363.439	5.866620963531609	draw_card	0.61	columbia_card_task_fmri	16.0	0.8666666666666667	89.0	-70.0	0.1333333333333333	15.0	1.0	2.0	-3.251661841213309	0.61	n/a	stim	poldrack-single-stim	s629	False	1
363.444	0.212	363.656	5.047573344483991	draw_card	0.212	columbia_card_task_fmri	16.0	0.8571428571428572	89.0	-70.0	0.1428571428571428	15.0	2.0	2.0	-2.3931761451430447	0.212	n/a	stim	poldrack-single-stim	s629	False	1
363.661	0.282	363.943	4.102518399429044	draw_card	0.282	columbia_card_task_fmri	16.0	0.8461538461538461	89.0	-70.0	0.1538461538461538	15.0	3.0	2.0	-1.4588919024310592	0.282	n/a	stim	poldrack-single-stim	s629	False	1
363.947	0.344	364.291	2.999954296864944	draw_card	0.344	columbia_card_task_fmri	16.0	0.8333333333333334	89.0	-70.0	0.1666666666666666	15.0	4.0	2.0	-0.4384001454032358	0.344	n/a	stim	poldrack-single-stim	s629	False	1
364.294	0.204	364.498	1.6969239938346377	draw_card	0.204	columbia_card_task_fmri	16.0	0.8181818181818181	89.0	-70.0	0.1818181818181818	15.0	5.0	2.0	0.680093708300106	0.204	n/a	stim	poldrack-single-stim	s629	False	1
364.502	0.197	364.699	0.1332876301982768	draw_card	0.197	columbia_card_task_fmri	16.0	0.8	89.0	-70.0	0.2	15.0	6.0	2.0	1.9094002151552656	0.197	6.0	stim	poldrack-single-stim	s629	False	0
365.457	1.5	364.706	n/a	-1.0	2.318	columbia_card_task_fmri	n/a	n/a	-1.0	n/a	n/a	n/a	n/a	n/a	n/a	n/a	n/a	ITI	poldrack-single-stim	s629	False	0
367.029	0.316	367.345	3.208287630198276	draw_card	0.316	columbia_card_task_fmri	8.0	0.9375	89.0	-90.0	0.0625	16.0	1.0	1.0	-8.756966186738605	0.316	n/a	stim	poldrack-single-stim	s629	False	1
367.347	0.309	367.656	2.799954296864943	draw_card	0.309	columbia_card_task_fmri	8.0	0.9333333333333332	89.0	-90.0	0.0666666666666666	16.0	2.0	1.0	-8.034600602551468	0.309	n/a	stim	poldrack-single-stim	s629	False	1
367.66	0.179	367.839	2.333287630198277	draw_card	0.179	columbia_card_task_fmri	8.0	0.9285714285714286	89.0	-90.0	0.0714285714285714	16.0	3.0	1.0	-7.242377071800565	0.179	n/a	stim	poldrack-single-stim	s629	False	1
367.843	0.148	367.991	1.7948260917367378	draw_card	0.148	columbia_card_task_fmri	8.0	0.9230769230769232	89.0	-90.0	0.0769230769230769	16.0	4.0	1.0	-6.36841701387511	0.148	n/a	stim	poldrack-single-stim	s629	False	1
367.994	0.185	368.179	1.1666209635316092	draw_card	0.185	columbia_card_task_fmri	8.0	0.9166666666666666	89.0	-90.0	0.0833333333333333	16.0	5.0	1.0	-5.397863532045356	0.185	n/a	stim	poldrack-single-stim	s629	False	1
368.183	0.192	368.375	0.4241967211073669	draw_card	0.192	columbia_card_task_fmri	8.0	0.9090909090909092	89.0	-90.0	0.0909090909090909	16.0	6.0	1.0	-4.311877694450597	0.192	n/a	stim	poldrack-single-stim	s629	False	1
368.379	0.197	368.576	-0.4667123698017237	draw_card	0.197	columbia_card_task_fmri	8.0	0.9	89.0	-90.0	0.1	16.0	7.0	1.0	-3.086211395241108	0.197	n/a	stim	poldrack-single-stim	s629	False	1
368.58	0.325	368.905	-1.5556012586906132	end_round	0.325	columbia_card_task_fmri	8.0	0.8888888888888888	71.0	-90.0	0.1111111111111111	16.0	8.0	1.0	-1.6891534047503107	0.325	7.0	stim	poldrack-single-stim	s629	False	1
369.662	1.5	368.911	n/a	-1.0	2.726	columbia_card_task_fmri	n/a	n/a	-1.0	n/a	n/a	n/a	n/a	n/a	n/a	n/a	n/a	ITI	poldrack-single-stim	s629	False	0
371.642	0.492	372.134	4.770787630198276	draw_card	0.492	columbia_card_task_fmri	10.0	0.9375	89.0	-95.0	0.0625	16.0	1.0	1.0	-7.0650283521999135	0.492	n/a	stim	poldrack-single-stim	s629	False	1
372.138	0.585	372.723	4.333287630198277	end_round	0.585	columbia_card_task_fmri	10.0	0.9333333333333332	71.0	-95.0	0.0666666666666666	16.0	2.0	1.0	-6.290912750323425	0.585	1.0	stim	poldrack-single-stim	s629	False	1
373.48	1.5	372.729	n/a	-1.0	2.386	columbia_card_task_fmri	n/a	n/a	-1.0	n/a	n/a	n/a	n/a	n/a	n/a	n/a	n/a	ITI	poldrack-single-stim	s629	False	0
375.121	0.305	375.426	5.708287630198276	draw_card	0.305	columbia_card_task_fmri	15.0	0.875	89.0	-70.0	0.125	16.0	1.0	2.0	-4.373719802538506	0.305	n/a	stim	poldrack-single-stim	s629	False	1
375.431	0.159	375.59	4.999954296864942	draw_card	0.159	columbia_card_task_fmri	15.0	0.8666666666666667	89.0	-70.0	0.1333333333333333	16.0	2.0	2.0	-3.591239350598123	0.159	2.0	stim	poldrack-single-stim	s629	False	0
376.348	1.5	375.597	n/a	-1.0	2.318	columbia_card_task_fmri	n/a	n/a	-1.0	n/a	n/a	n/a	n/a	n/a	n/a	n/a	n/a	ITI	poldrack-single-stim	s629	False	0
377.92	0.698	378.618	4.708287630198276	draw_card	0.698	columbia_card_task_fmri	16.0	0.875	89.0	-85.0	0.125	16.0	1.0	2.0	0.912781136914326	0.698	1.0	stim	poldrack-single-stim	s629	False	0
379.376	1.5	378.625	n/a	-1.0	2.25	columbia_card_task_fmri	n/a	n/a	-1.0	n/a	n/a	n/a	n/a	n/a	n/a	n/a	n/a	ITI	poldrack-single-stim	s629	False	0
