duration	onset	block_duration	movement_onset	planning	condition	exp_stage	experiment_exp_id	key_press	problem_id	response_time	trial_id	trial_type	worker_id	junk
5.242	3.015	5.242	8.257	1	UA_with_intermediate	practice	ward_and_allport	71	0.0	5.242	to_hand	poldrack-single-stim	s629	False
0.1	8.259	1.026	9.285	0	UA_with_intermediate	practice	ward_and_allport	89	0.0	1.026	to_board	poldrack-single-stim	s629	False
0.1	9.287	0.742	10.029	0	UA_with_intermediate	practice	ward_and_allport	71	0.0	0.742	to_hand	poldrack-single-stim	s629	False
0.1	10.03	0.744	10.774	0	UA_with_intermediate	practice	ward_and_allport	89	0.0	0.744	to_board	poldrack-single-stim	s629	False
0.1	10.775	2.693	13.468	0	UA_with_intermediate	practice	ward_and_allport	89	0.0	2.693	to_hand	poldrack-single-stim	s629	False
0.1	13.47	0.929	14.399	0	UA_with_intermediate	practice	ward_and_allport	82	0.0	0.929	to_board	poldrack-single-stim	s629	False
0.1	14.402	1.239	15.641	0	UA_with_intermediate	practice	ward_and_allport	89	0.0	1.239	to_hand	poldrack-single-stim	s629	False
0.1	15.641	0.858	16.499	0	UA_with_intermediate	practice	ward_and_allport	82	0.0	0.858	to_board	poldrack-single-stim	s629	False
0.1	16.5	0.952	17.452	0	UA_with_intermediate	practice	ward_and_allport	82	0.0	0.952	to_hand	poldrack-single-stim	s629	False
0.1	17.452	0.762	18.214	0	UA_with_intermediate	practice	ward_and_allport	82	0.0	0.762	to_board	poldrack-single-stim	s629	False
0.1	18.216	1.42	19.636	0	UA_with_intermediate	practice	ward_and_allport	82	0.0	1.42	to_hand	poldrack-single-stim	s629	False
0.1	19.637	0.457	20.094	0	UA_with_intermediate	practice	ward_and_allport	71	0.0	0.457	to_board	poldrack-single-stim	s629	False
0.1	20.095	1.08	21.175	0	UA_with_intermediate	practice	ward_and_allport	82	0.0	1.08	to_hand	poldrack-single-stim	s629	False
0.1	21.176	0.888	22.064	0	UA_with_intermediate	practice	ward_and_allport	89	0.0	0.888	to_board	poldrack-single-stim	s629	False
0.1	22.066	1.303	23.369	0	UA_with_intermediate	practice	ward_and_allport	71	0.0	1.303	to_hand	poldrack-single-stim	s629	False
0.1	23.369	0.508	23.877	0	UA_with_intermediate	practice	ward_and_allport	89	0.0	0.508	to_board	poldrack-single-stim	s629	False
1.0	23.88	2.5	23.879	0	UA_with_intermediate	practice	ward_and_allport	-1	0.0	n/a	feedback	poldrack-single-stim	s629	False
3.616	26.382	3.616	29.998	1	UA_with_intermediate	practice	ward_and_allport	71	1.0	3.616	to_hand	poldrack-single-stim	s629	False
0.1	29.998	0.792	30.79	0	UA_with_intermediate	practice	ward_and_allport	71	1.0	0.792	to_board	poldrack-single-stim	s629	False
0.1	30.792	0.778	31.57	0	UA_with_intermediate	practice	ward_and_allport	89	1.0	0.778	to_hand	poldrack-single-stim	s629	False
0.1	31.571	1.725	33.296	0	UA_with_intermediate	practice	ward_and_allport	89	1.0	1.725	to_board	poldrack-single-stim	s629	False
0.1	33.298	1.142	34.44	0	UA_with_intermediate	practice	ward_and_allport	71	1.0	1.142	to_hand	poldrack-single-stim	s629	False
0.1	34.441	0.443	34.884	0	UA_with_intermediate	practice	ward_and_allport	89	1.0	0.443	to_board	poldrack-single-stim	s629	False
0.1	34.885	3.23	38.115	0	UA_with_intermediate	practice	ward_and_allport	89	1.0	3.23	to_hand	poldrack-single-stim	s629	False
0.1	38.117	1.118	39.235	0	UA_with_intermediate	practice	ward_and_allport	82	1.0	1.118	to_board	poldrack-single-stim	s629	False
0.1	39.237	0.828	40.065	0	UA_with_intermediate	practice	ward_and_allport	89	1.0	0.828	to_hand	poldrack-single-stim	s629	False
0.1	40.066	1.251	41.317	0	UA_with_intermediate	practice	ward_and_allport	71	1.0	1.251	to_board	poldrack-single-stim	s629	False
0.1	41.319	0.741	42.06	0	UA_with_intermediate	practice	ward_and_allport	89	1.0	0.741	to_hand	poldrack-single-stim	s629	False
0.1	42.061	0.761	42.822	0	UA_with_intermediate	practice	ward_and_allport	89	1.0	0.761	to_board	poldrack-single-stim	s629	False
0.1	42.824	0.834	43.658	0	UA_with_intermediate	practice	ward_and_allport	71	1.0	0.834	to_hand	poldrack-single-stim	s629	False
0.1	43.659	1.361	45.02	0	UA_with_intermediate	practice	ward_and_allport	71	1.0	1.361	to_board	poldrack-single-stim	s629	False
0.1	45.022	0.821	45.843	0	UA_with_intermediate	practice	ward_and_allport	82	1.0	0.821	to_hand	poldrack-single-stim	s629	False
0.1	45.845	0.664	46.509	0	UA_with_intermediate	practice	ward_and_allport	89	1.0	0.664	to_board	poldrack-single-stim	s629	False
0.1	46.51	1.094	47.604	0	UA_with_intermediate	practice	ward_and_allport	71	1.0	1.094	to_hand	poldrack-single-stim	s629	False
0.1	47.606	0.488	48.094	0	UA_with_intermediate	practice	ward_and_allport	89	1.0	0.488	to_board	poldrack-single-stim	s629	False
1.0	48.098	2.1	48.097	0	UA_with_intermediate	practice	ward_and_allport	-1	1.0	n/a	feedback	poldrack-single-stim	s629	False
1.859	50.199	1.859	52.058	1	UA_without_intermediate	practice	ward_and_allport	82	2.0	1.859	to_hand	poldrack-single-stim	s629	False
0.1	52.059	0.613	52.672	0	UA_without_intermediate	practice	ward_and_allport	89	2.0	0.613	to_board	poldrack-single-stim	s629	False
0.1	52.674	2.19	54.864	0	UA_without_intermediate	practice	ward_and_allport	71	2.0	2.19	to_hand	poldrack-single-stim	s629	False
0.1	54.864	0.396	55.26	0	UA_without_intermediate	practice	ward_and_allport	89	2.0	0.396	to_board	poldrack-single-stim	s629	False
0.1	55.262	1.678	56.94	0	UA_without_intermediate	practice	ward_and_allport	71	2.0	1.678	to_hand	poldrack-single-stim	s629	False
0.1	56.941	0.472	57.413	0	UA_without_intermediate	practice	ward_and_allport	89	2.0	0.472	to_board	poldrack-single-stim	s629	False
1.0	57.42	2.2	57.419	0	UA_without_intermediate	practice	ward_and_allport	-1	2.0	n/a	feedback	poldrack-single-stim	s629	False
2.102	59.622	2.102	61.724	1	UA_without_intermediate	practice	ward_and_allport	71	3.0	2.102	to_hand	poldrack-single-stim	s629	False
0.1	61.725	0.753	62.478	0	UA_without_intermediate	practice	ward_and_allport	89	3.0	0.753	to_board	poldrack-single-stim	s629	False
0.1	62.479	1.526	64.005	0	UA_without_intermediate	practice	ward_and_allport	71	3.0	1.526	to_hand	poldrack-single-stim	s629	False
0.1	64.006	1.516	65.522	0	UA_without_intermediate	practice	ward_and_allport	82	3.0	1.516	to_board	poldrack-single-stim	s629	False
0.1	65.525	1.519	67.044	0	UA_without_intermediate	practice	ward_and_allport	89	3.0	1.519	to_hand	poldrack-single-stim	s629	False
0.1	67.044	0.478	67.522	0	UA_without_intermediate	practice	ward_and_allport	89	3.0	0.478	to_board	poldrack-single-stim	s629	False
0.1	67.525	0.906	68.431	0	UA_without_intermediate	practice	ward_and_allport	82	3.0	0.906	to_hand	poldrack-single-stim	s629	False
0.1	68.431	0.585	69.016	0	UA_without_intermediate	practice	ward_and_allport	71	3.0	0.585	to_board	poldrack-single-stim	s629	False
0.1	69.019	1.557	70.576	0	UA_without_intermediate	practice	ward_and_allport	82	3.0	1.557	to_hand	poldrack-single-stim	s629	False
0.1	70.578	0.873	71.451	0	UA_without_intermediate	practice	ward_and_allport	89	3.0	0.873	to_board	poldrack-single-stim	s629	False
0.1	71.453	1.714	73.167	0	UA_without_intermediate	practice	ward_and_allport	71	3.0	1.714	to_hand	poldrack-single-stim	s629	False
0.1	73.168	0.42	73.588	0	UA_without_intermediate	practice	ward_and_allport	89	3.0	0.42	to_board	poldrack-single-stim	s629	False
1.0	73.594	2.0	73.593	0	UA_without_intermediate	practice	ward_and_allport	-1	3.0	n/a	feedback	poldrack-single-stim	s629	False
4.536	77.605	4.536	82.141	1	PA_with_intermediate	test	ward_and_allport	71	0.0	4.536	to_hand	poldrack-single-stim	s629	False
0.1	82.142	0.487	82.629	0	PA_with_intermediate	test	ward_and_allport	89	0.0	0.487	to_board	poldrack-single-stim	s629	False
0.1	82.632	0.583	83.215	0	PA_with_intermediate	test	ward_and_allport	89	0.0	0.583	to_hand	poldrack-single-stim	s629	False
0.1	83.216	0.489	83.705	0	PA_with_intermediate	test	ward_and_allport	89	0.0	0.489	to_board	poldrack-single-stim	s629	False
0.1	83.707	0.64	84.347	0	PA_with_intermediate	test	ward_and_allport	71	0.0	0.64	to_hand	poldrack-single-stim	s629	False
0.1	84.348	1.735	86.083	0	PA_with_intermediate	test	ward_and_allport	82	0.0	1.735	to_board	poldrack-single-stim	s629	False
0.1	86.085	1.126	87.211	0	PA_with_intermediate	test	ward_and_allport	71	0.0	1.126	to_hand	poldrack-single-stim	s629	False
0.1	87.213	0.631	87.844	0	PA_with_intermediate	test	ward_and_allport	71	0.0	0.631	to_board	poldrack-single-stim	s629	False
0.1	87.847	2.656	90.503	0	PA_with_intermediate	test	ward_and_allport	89	0.0	2.656	to_hand	poldrack-single-stim	s629	False
0.1	90.504	0.479	90.983	0	PA_with_intermediate	test	ward_and_allport	82	0.0	0.479	to_board	poldrack-single-stim	s629	False
1.0	90.989	3.768	90.988	0	PA_with_intermediate	test	ward_and_allport	-1	0.0	n/a	feedback	poldrack-single-stim	s629	False
3.089	94.759	3.089	97.848	1	PA_with_intermediate	test	ward_and_allport	89	1.0	3.089	to_hand	poldrack-single-stim	s629	False
0.1	97.85	1.447	99.297	0	PA_with_intermediate	test	ward_and_allport	82	1.0	1.447	to_board	poldrack-single-stim	s629	False
0.1	99.299	0.729	100.028	0	PA_with_intermediate	test	ward_and_allport	82	1.0	0.729	to_hand	poldrack-single-stim	s629	False
0.1	100.03	0.915	100.945	0	PA_with_intermediate	test	ward_and_allport	89	1.0	0.915	to_board	poldrack-single-stim	s629	False
0.1	100.947	2.184	103.131	0	PA_with_intermediate	test	ward_and_allport	89	1.0	2.184	to_hand	poldrack-single-stim	s629	False
0.1	103.133	0.52	103.653	0	PA_with_intermediate	test	ward_and_allport	71	1.0	0.52	to_board	poldrack-single-stim	s629	False
0.1	103.656	0.537	104.193	0	PA_with_intermediate	test	ward_and_allport	89	1.0	0.537	to_hand	poldrack-single-stim	s629	False
0.1	104.193	0.535	104.728	0	PA_with_intermediate	test	ward_and_allport	82	1.0	0.535	to_board	poldrack-single-stim	s629	False
0.1	104.732	0.842	105.574	0	PA_with_intermediate	test	ward_and_allport	71	1.0	0.842	to_hand	poldrack-single-stim	s629	False
0.1	105.574	0.459	106.033	0	PA_with_intermediate	test	ward_and_allport	89	1.0	0.459	to_board	poldrack-single-stim	s629	False
1.0	106.04	2.68	106.039	0	PA_with_intermediate	test	ward_and_allport	-1	1.0	n/a	feedback	poldrack-single-stim	s629	False
2.759	108.722	2.759	111.481	1	PA_without_intermediate	test	ward_and_allport	71	2.0	2.759	to_hand	poldrack-single-stim	s629	False
0.1	111.483	0.413	111.896	0	PA_without_intermediate	test	ward_and_allport	89	2.0	0.413	to_board	poldrack-single-stim	s629	False
0.1	111.898	0.643	112.541	0	PA_without_intermediate	test	ward_and_allport	71	2.0	0.643	to_hand	poldrack-single-stim	s629	False
0.1	112.543	0.393	112.936	0	PA_without_intermediate	test	ward_and_allport	82	2.0	0.393	to_board	poldrack-single-stim	s629	False
0.1	112.939	0.723	113.662	0	PA_without_intermediate	test	ward_and_allport	71	2.0	0.723	to_hand	poldrack-single-stim	s629	False
0.1	113.662	0.371	114.033	0	PA_without_intermediate	test	ward_and_allport	89	2.0	0.371	to_board	poldrack-single-stim	s629	False
1.0	114.039	3.224	114.038	0	PA_without_intermediate	test	ward_and_allport	-1	2.0	n/a	feedback	poldrack-single-stim	s629	False
3.562	117.267	3.562	120.829	1	PA_without_intermediate	test	ward_and_allport	82	3.0	3.562	to_hand	poldrack-single-stim	s629	False
0.1	120.83	1.007	121.837	0	PA_without_intermediate	test	ward_and_allport	71	3.0	1.007	to_board	poldrack-single-stim	s629	False
0.1	121.84	1.291	123.131	0	PA_without_intermediate	test	ward_and_allport	82	3.0	1.291	to_hand	poldrack-single-stim	s629	False
0.1	123.131	0.673	123.804	0	PA_without_intermediate	test	ward_and_allport	89	3.0	0.673	to_board	poldrack-single-stim	s629	False
0.1	123.808	0.782	124.59	0	PA_without_intermediate	test	ward_and_allport	71	3.0	0.782	to_hand	poldrack-single-stim	s629	False
0.1	124.591	0.699	125.29	0	PA_without_intermediate	test	ward_and_allport	71	3.0	0.699	to_board	poldrack-single-stim	s629	False
0.1	125.292	0.704	125.996	0	PA_without_intermediate	test	ward_and_allport	82	3.0	0.704	to_hand	poldrack-single-stim	s629	False
0.1	125.998	0.347	126.345	0	PA_without_intermediate	test	ward_and_allport	71	3.0	0.347	to_board	poldrack-single-stim	s629	False
1.0	126.352	3.36	126.351	0	PA_without_intermediate	test	ward_and_allport	-1	3.0	n/a	feedback	poldrack-single-stim	s629	False
4.767	129.715	4.767	134.482	1	PA_without_intermediate	test	ward_and_allport	82	4.0	4.767	to_hand	poldrack-single-stim	s629	False
0.1	134.483	1.324	135.807	0	PA_without_intermediate	test	ward_and_allport	89	4.0	1.324	to_board	poldrack-single-stim	s629	False
0.1	135.81	1.123	136.933	0	PA_without_intermediate	test	ward_and_allport	82	4.0	1.123	to_hand	poldrack-single-stim	s629	False
0.1	136.934	0.63	137.564	0	PA_without_intermediate	test	ward_and_allport	89	4.0	0.63	to_board	poldrack-single-stim	s629	False
0.1	137.567	0.462	138.029	0	PA_without_intermediate	test	ward_and_allport	82	4.0	0.462	to_hand	poldrack-single-stim	s629	False
0.1	138.03	0.444	138.474	0	PA_without_intermediate	test	ward_and_allport	71	4.0	0.444	to_board	poldrack-single-stim	s629	False
1.0	138.481	2.0	138.48	0	PA_without_intermediate	test	ward_and_allport	-1	4.0	n/a	feedback	poldrack-single-stim	s629	False
2.89	140.484	2.89	143.374	1	PA_without_intermediate	test	ward_and_allport	71	5.0	2.89	to_hand	poldrack-single-stim	s629	False
0.1	143.375	0.893	144.268	0	PA_without_intermediate	test	ward_and_allport	82	5.0	0.893	to_board	poldrack-single-stim	s629	False
0.1	144.271	1.331	145.602	0	PA_without_intermediate	test	ward_and_allport	71	5.0	1.331	to_hand	poldrack-single-stim	s629	False
0.1	145.603	0.521	146.124	0	PA_without_intermediate	test	ward_and_allport	89	5.0	0.521	to_board	poldrack-single-stim	s629	False
0.1	146.128	0.541	146.669	0	PA_without_intermediate	test	ward_and_allport	71	5.0	0.541	to_hand	poldrack-single-stim	s629	False
0.1	146.67	0.366	147.036	0	PA_without_intermediate	test	ward_and_allport	82	5.0	0.366	to_board	poldrack-single-stim	s629	False
1.0	147.044	2.408	147.043	0	PA_without_intermediate	test	ward_and_allport	-1	5.0	n/a	feedback	poldrack-single-stim	s629	False
2.316	149.456	2.316	151.772	1	PA_with_intermediate	test	ward_and_allport	71	6.0	2.316	to_hand	poldrack-single-stim	s629	False
0.1	151.773	1.025	152.798	0	PA_with_intermediate	test	ward_and_allport	89	6.0	1.025	to_board	poldrack-single-stim	s629	False
0.1	152.802	0.509	153.311	0	PA_with_intermediate	test	ward_and_allport	71	6.0	0.509	to_hand	poldrack-single-stim	s629	False
0.1	153.312	1.068	154.38	0	PA_with_intermediate	test	ward_and_allport	89	6.0	1.068	to_board	poldrack-single-stim	s629	False
0.1	154.384	1.894	156.278	0	PA_with_intermediate	test	ward_and_allport	71	6.0	1.894	to_hand	poldrack-single-stim	s629	False
0.1	156.279	0.678	156.957	0	PA_with_intermediate	test	ward_and_allport	89	6.0	0.678	to_board	poldrack-single-stim	s629	False
0.1	156.961	1.972	158.933	0	PA_with_intermediate	test	ward_and_allport	89	6.0	1.972	to_hand	poldrack-single-stim	s629	False
0.1	158.934	0.738	159.672	0	PA_with_intermediate	test	ward_and_allport	71	6.0	0.738	to_board	poldrack-single-stim	s629	False
0.1	159.675	1.255	160.93	0	PA_with_intermediate	test	ward_and_allport	89	6.0	1.255	to_hand	poldrack-single-stim	s629	False
0.1	160.931	1.015	161.946	0	PA_with_intermediate	test	ward_and_allport	82	6.0	1.015	to_board	poldrack-single-stim	s629	False
0.1	161.951	0.657	162.608	0	PA_with_intermediate	test	ward_and_allport	89	6.0	0.657	to_hand	poldrack-single-stim	s629	False
0.1	162.609	1.122	163.731	0	PA_with_intermediate	test	ward_and_allport	71	6.0	1.122	to_board	poldrack-single-stim	s629	False
0.1	163.734	0.529	164.263	0	PA_with_intermediate	test	ward_and_allport	82	6.0	0.529	to_hand	poldrack-single-stim	s629	False
0.1	164.264	0.418	164.682	0	PA_with_intermediate	test	ward_and_allport	89	6.0	0.418	to_board	poldrack-single-stim	s629	False
0.1	164.686	0.798	165.484	0	PA_with_intermediate	test	ward_and_allport	71	6.0	0.798	to_hand	poldrack-single-stim	s629	False
0.1	165.486	0.262	165.748	0	PA_with_intermediate	test	ward_and_allport	89	6.0	0.262	to_board	poldrack-single-stim	s629	False
1.0	165.757	2.136	165.756	0	PA_with_intermediate	test	ward_and_allport	-1	6.0	n/a	feedback	poldrack-single-stim	s629	False
4.432	167.897	4.432	172.329	1	PA_without_intermediate	test	ward_and_allport	82	7.0	4.432	to_hand	poldrack-single-stim	s629	False
0.1	172.33	0.864	173.194	0	PA_without_intermediate	test	ward_and_allport	71	7.0	0.864	to_board	poldrack-single-stim	s629	False
0.1	173.197	1.81	175.007	0	PA_without_intermediate	test	ward_and_allport	82	7.0	1.81	to_hand	poldrack-single-stim	s629	False
0.1	175.008	1.471	176.479	0	PA_without_intermediate	test	ward_and_allport	71	7.0	1.471	to_board	poldrack-single-stim	s629	False
0.1	176.482	1.363	177.845	0	PA_without_intermediate	test	ward_and_allport	82	7.0	1.363	to_hand	poldrack-single-stim	s629	False
0.1	177.846	0.391	178.237	0	PA_without_intermediate	test	ward_and_allport	89	7.0	0.391	to_board	poldrack-single-stim	s629	False
1.0	178.247	5.128	178.246	0	PA_without_intermediate	test	ward_and_allport	-1	7.0	n/a	feedback	poldrack-single-stim	s629	False
4.397	183.379	4.397	187.776	1	PA_without_intermediate	test	ward_and_allport	71	8.0	4.397	to_hand	poldrack-single-stim	s629	False
0.1	187.777	1.022	188.799	0	PA_without_intermediate	test	ward_and_allport	82	8.0	1.022	to_board	poldrack-single-stim	s629	False
0.1	188.803	1.019	189.822	0	PA_without_intermediate	test	ward_and_allport	71	8.0	1.019	to_hand	poldrack-single-stim	s629	False
0.1	189.822	0.336	190.158	0	PA_without_intermediate	test	ward_and_allport	89	8.0	0.336	to_board	poldrack-single-stim	s629	False
0.1	190.163	0.365	190.528	0	PA_without_intermediate	test	ward_and_allport	71	8.0	0.365	to_hand	poldrack-single-stim	s629	False
0.1	190.529	0.405	190.934	0	PA_without_intermediate	test	ward_and_allport	82	8.0	0.405	to_board	poldrack-single-stim	s629	False
1.0	190.943	2.136	190.942	0	PA_without_intermediate	test	ward_and_allport	-1	8.0	n/a	feedback	poldrack-single-stim	s629	False
1.486	193.083	1.486	194.569	1	PA_without_intermediate	test	ward_and_allport	71	9.0	1.486	to_hand	poldrack-single-stim	s629	False
0.1	194.57	0.495	195.065	0	PA_without_intermediate	test	ward_and_allport	89	9.0	0.495	to_board	poldrack-single-stim	s629	False
0.1	195.069	0.442	195.511	0	PA_without_intermediate	test	ward_and_allport	71	9.0	0.442	to_hand	poldrack-single-stim	s629	False
0.1	195.512	0.28	195.792	0	PA_without_intermediate	test	ward_and_allport	89	9.0	0.28	to_board	poldrack-single-stim	s629	False
0.1	195.796	0.477	196.273	0	PA_without_intermediate	test	ward_and_allport	71	9.0	0.477	to_hand	poldrack-single-stim	s629	False
0.1	196.275	0.28	196.555	0	PA_without_intermediate	test	ward_and_allport	82	9.0	0.28	to_board	poldrack-single-stim	s629	False
1.0	196.562	5.264	196.561	0	PA_without_intermediate	test	ward_and_allport	-1	9.0	n/a	feedback	poldrack-single-stim	s629	False
1.564	201.83	1.564	203.394	1	PA_with_intermediate	test	ward_and_allport	71	10.0	1.564	to_hand	poldrack-single-stim	s629	False
0.1	203.395	1.651	205.046	0	PA_with_intermediate	test	ward_and_allport	89	10.0	1.651	to_board	poldrack-single-stim	s629	False
0.1	205.051	0.351	205.402	0	PA_with_intermediate	test	ward_and_allport	71	10.0	0.351	to_hand	poldrack-single-stim	s629	False
0.1	205.402	0.367	205.769	0	PA_with_intermediate	test	ward_and_allport	82	10.0	0.367	to_board	poldrack-single-stim	s629	False
0.1	205.774	0.395	206.169	0	PA_with_intermediate	test	ward_and_allport	71	10.0	0.395	to_hand	poldrack-single-stim	s629	False
0.1	206.169	0.637	206.806	0	PA_with_intermediate	test	ward_and_allport	89	10.0	0.637	to_board	poldrack-single-stim	s629	False
0.1	206.811	1.056	207.867	0	PA_with_intermediate	test	ward_and_allport	82	10.0	1.056	to_hand	poldrack-single-stim	s629	False
0.1	207.867	0.058	207.925	0	PA_with_intermediate	test	ward_and_allport	71	10.0	0.058	to_board	poldrack-single-stim	s629	False
0.1	207.929	1.01	208.939	0	PA_with_intermediate	test	ward_and_allport	71	10.0	1.01	to_hand	poldrack-single-stim	s629	False
0.1	208.94	0.394	209.334	0	PA_with_intermediate	test	ward_and_allport	82	10.0	0.394	to_board	poldrack-single-stim	s629	False
0.1	209.338	1.037	210.375	0	PA_with_intermediate	test	ward_and_allport	89	10.0	1.037	to_hand	poldrack-single-stim	s629	False
0.1	210.376	0.501	210.877	0	PA_with_intermediate	test	ward_and_allport	82	10.0	0.501	to_board	poldrack-single-stim	s629	False
0.1	210.881	0.702	211.583	0	PA_with_intermediate	test	ward_and_allport	89	10.0	0.702	to_hand	poldrack-single-stim	s629	False
0.1	211.585	0.434	212.019	0	PA_with_intermediate	test	ward_and_allport	71	10.0	0.434	to_board	poldrack-single-stim	s629	False
0.1	212.022	1.572	213.594	0	PA_with_intermediate	test	ward_and_allport	71	10.0	1.572	to_hand	poldrack-single-stim	s629	False
0.1	213.596	1.075	214.671	0	PA_with_intermediate	test	ward_and_allport	89	10.0	1.075	to_board	poldrack-single-stim	s629	False
0.1	214.675	1.159	215.834	0	PA_with_intermediate	test	ward_and_allport	82	10.0	1.159	to_hand	poldrack-single-stim	s629	False
0.1	215.835	0.336	216.171	0	PA_with_intermediate	test	ward_and_allport	71	10.0	0.336	to_board	poldrack-single-stim	s629	False
0.1	216.175	0.514	216.689	0	PA_with_intermediate	test	ward_and_allport	89	10.0	0.514	to_hand	poldrack-single-stim	s629	False
0.1	216.691	0.304	216.995	0	PA_with_intermediate	test	ward_and_allport	71	10.0	0.304	to_board	poldrack-single-stim	s629	False
1.0	217.003	4.04	217.002	0	PA_with_intermediate	test	ward_and_allport	-1	10.0	n/a	feedback	poldrack-single-stim	s629	False
2.02	221.047	2.02	223.067	1	PA_with_intermediate	test	ward_and_allport	71	11.0	2.02	to_hand	poldrack-single-stim	s629	False
0.1	223.068	0.563	223.631	0	PA_with_intermediate	test	ward_and_allport	82	11.0	0.563	to_board	poldrack-single-stim	s629	False
0.1	223.636	0.475	224.111	0	PA_with_intermediate	test	ward_and_allport	71	11.0	0.475	to_hand	poldrack-single-stim	s629	False
0.1	224.112	0.381	224.493	0	PA_with_intermediate	test	ward_and_allport	89	11.0	0.381	to_board	poldrack-single-stim	s629	False
0.1	224.499	0.955	225.454	0	PA_with_intermediate	test	ward_and_allport	71	11.0	0.955	to_hand	poldrack-single-stim	s629	False
0.1	225.454	0.554	226.008	0	PA_with_intermediate	test	ward_and_allport	71	11.0	0.554	to_board	poldrack-single-stim	s629	False
0.1	226.014	0.287	226.301	0	PA_with_intermediate	test	ward_and_allport	82	11.0	0.287	to_hand	poldrack-single-stim	s629	False
0.1	226.302	0.346	226.648	0	PA_with_intermediate	test	ward_and_allport	71	11.0	0.346	to_board	poldrack-single-stim	s629	False
1.0	226.655	2.136	226.654	0	PA_with_intermediate	test	ward_and_allport	-1	11.0	n/a	feedback	poldrack-single-stim	s629	False
3.659	228.797	3.659	232.456	1	PA_with_intermediate	test	ward_and_allport	71	12.0	3.659	to_hand	poldrack-single-stim	s629	False
0.1	232.457	0.357	232.814	0	PA_with_intermediate	test	ward_and_allport	82	12.0	0.357	to_board	poldrack-single-stim	s629	False
0.1	232.82	0.581	233.401	0	PA_with_intermediate	test	ward_and_allport	71	12.0	0.581	to_hand	poldrack-single-stim	s629	False
0.1	233.401	0.459	233.86	0	PA_with_intermediate	test	ward_and_allport	89	12.0	0.459	to_board	poldrack-single-stim	s629	False
0.1	233.866	0.573	234.439	0	PA_with_intermediate	test	ward_and_allport	71	12.0	0.573	to_hand	poldrack-single-stim	s629	False
0.1	234.44	0.517	234.957	0	PA_with_intermediate	test	ward_and_allport	71	12.0	0.517	to_board	poldrack-single-stim	s629	False
0.1	234.962	0.284	235.246	0	PA_with_intermediate	test	ward_and_allport	82	12.0	0.284	to_hand	poldrack-single-stim	s629	False
0.1	235.248	0.326	235.574	0	PA_with_intermediate	test	ward_and_allport	71	12.0	0.326	to_board	poldrack-single-stim	s629	False
1.0	235.585	2.408	235.584	0	PA_with_intermediate	test	ward_and_allport	-1	12.0	n/a	feedback	poldrack-single-stim	s629	False
1.45	237.998	1.45	239.448	1	PA_without_intermediate	test	ward_and_allport	71	13.0	1.45	to_hand	poldrack-single-stim	s629	False
0.1	239.45	0.423	239.873	0	PA_without_intermediate	test	ward_and_allport	82	13.0	0.423	to_board	poldrack-single-stim	s629	False
0.1	239.879	0.843	240.722	0	PA_without_intermediate	test	ward_and_allport	71	13.0	0.843	to_hand	poldrack-single-stim	s629	False
0.1	240.723	0.464	241.187	0	PA_without_intermediate	test	ward_and_allport	82	13.0	0.464	to_board	poldrack-single-stim	s629	False
0.1	241.193	1.384	242.577	0	PA_without_intermediate	test	ward_and_allport	71	13.0	1.384	to_hand	poldrack-single-stim	s629	False
0.1	242.577	0.605	243.182	0	PA_without_intermediate	test	ward_and_allport	89	13.0	0.605	to_board	poldrack-single-stim	s629	False
1.0	243.19	2.68	243.189	0	PA_without_intermediate	test	ward_and_allport	-1	13.0	n/a	feedback	poldrack-single-stim	s629	False
2.975	245.877	2.975	248.852	1	PA_with_intermediate	test	ward_and_allport	82	14.0	2.975	to_hand	poldrack-single-stim	s629	False
0.1	248.853	0.857	249.71	0	PA_with_intermediate	test	ward_and_allport	89	14.0	0.857	to_board	poldrack-single-stim	s629	False
0.1	249.715	1.693	251.408	0	PA_with_intermediate	test	ward_and_allport	82	14.0	1.693	to_hand	poldrack-single-stim	s629	False
0.1	251.41	0.657	252.067	0	PA_with_intermediate	test	ward_and_allport	71	14.0	0.657	to_board	poldrack-single-stim	s629	False
0.1	252.072	1.046	253.118	0	PA_with_intermediate	test	ward_and_allport	89	14.0	1.046	to_hand	poldrack-single-stim	s629	False
0.1	253.12	0.522	253.642	0	PA_with_intermediate	test	ward_and_allport	89	14.0	0.522	to_board	poldrack-single-stim	s629	False
0.1	253.647	0.295	253.942	0	PA_with_intermediate	test	ward_and_allport	71	14.0	0.295	to_hand	poldrack-single-stim	s629	False
0.1	253.943	0.229	254.172	0	PA_with_intermediate	test	ward_and_allport	89	14.0	0.229	to_board	poldrack-single-stim	s629	False
0.1	254.179	0.807	254.986	0	PA_with_intermediate	test	ward_and_allport	82	14.0	0.807	to_hand	poldrack-single-stim	s629	False
0.1	254.986	0.421	255.407	0	PA_with_intermediate	test	ward_and_allport	71	14.0	0.421	to_board	poldrack-single-stim	s629	False
0.1	255.414	0.467	255.881	0	PA_with_intermediate	test	ward_and_allport	71	14.0	0.467	to_hand	poldrack-single-stim	s629	False
0.1	255.881	0.525	256.406	0	PA_with_intermediate	test	ward_and_allport	82	14.0	0.525	to_board	poldrack-single-stim	s629	False
0.1	256.412	1.105	257.517	0	PA_with_intermediate	test	ward_and_allport	89	14.0	1.105	to_hand	poldrack-single-stim	s629	False
0.1	257.519	0.512	258.031	0	PA_with_intermediate	test	ward_and_allport	71	14.0	0.512	to_board	poldrack-single-stim	s629	False
0.1	258.036	0.792	258.828	0	PA_with_intermediate	test	ward_and_allport	71	14.0	0.792	to_hand	poldrack-single-stim	s629	False
0.1	258.83	0.545	259.375	0	PA_with_intermediate	test	ward_and_allport	89	14.0	0.545	to_board	poldrack-single-stim	s629	False
0.1	259.38	1.463	260.843	0	PA_with_intermediate	test	ward_and_allport	82	14.0	1.463	to_hand	poldrack-single-stim	s629	False
0.1	260.844	0.603	261.447	0	PA_with_intermediate	test	ward_and_allport	82	14.0	0.603	to_board	poldrack-single-stim	s629	False
0.1	261.453	0.869	262.322	0	PA_with_intermediate	test	ward_and_allport	89	14.0	0.869	to_hand	poldrack-single-stim	s629	False
0.1	262.323	0.475	262.798	0	PA_with_intermediate	test	ward_and_allport	71	14.0	0.475	to_board	poldrack-single-stim	s629	False
0.1	262.804	0.548	263.352	0	PA_with_intermediate	test	ward_and_allport	89	14.0	0.548	to_hand	poldrack-single-stim	s629	False
0.1	263.353	0.496	263.849	0	PA_with_intermediate	test	ward_and_allport	71	14.0	0.496	to_board	poldrack-single-stim	s629	False
0.1	263.855	1.24	265.095	0	PA_with_intermediate	test	ward_and_allport	71	14.0	1.24	to_hand	poldrack-single-stim	s629	False
0.1	265.096	0.554	265.65	0	PA_with_intermediate	test	ward_and_allport	82	14.0	0.554	to_board	poldrack-single-stim	s629	False
0.1	265.655	0.478	266.133	0	PA_with_intermediate	test	ward_and_allport	71	14.0	0.478	to_hand	poldrack-single-stim	s629	False
0.1	266.133	0.464	266.597	0	PA_with_intermediate	test	ward_and_allport	89	14.0	0.464	to_board	poldrack-single-stim	s629	False
0.1	266.604	1.029	267.633	0	PA_with_intermediate	test	ward_and_allport	82	14.0	1.029	to_hand	poldrack-single-stim	s629	False
0.1	267.634	0.41	268.044	0	PA_with_intermediate	test	ward_and_allport	71	14.0	0.41	to_board	poldrack-single-stim	s629	False
0.1	268.05	0.753	268.803	0	PA_with_intermediate	test	ward_and_allport	71	14.0	0.753	to_hand	poldrack-single-stim	s629	False
0.1	268.803	0.326	269.129	0	PA_with_intermediate	test	ward_and_allport	89	14.0	0.326	to_board	poldrack-single-stim	s629	False
1.0	269.14	4.72	269.139	0	PA_with_intermediate	test	ward_and_allport	-1	14.0	n/a	feedback	poldrack-single-stim	s629	False
2.862	278.868	2.862	281.73	1	PA_without_intermediate	test	ward_and_allport	82	15.0	2.862	to_hand	poldrack-single-stim	s629	False
0.1	281.731	1.166	282.897	0	PA_without_intermediate	test	ward_and_allport	71	15.0	1.166	to_board	poldrack-single-stim	s629	False
0.1	282.902	1.045	283.947	0	PA_without_intermediate	test	ward_and_allport	82	15.0	1.045	to_hand	poldrack-single-stim	s629	False
0.1	283.949	0.67	284.619	0	PA_without_intermediate	test	ward_and_allport	89	15.0	0.67	to_board	poldrack-single-stim	s629	False
0.1	284.625	1.943	286.568	0	PA_without_intermediate	test	ward_and_allport	71	15.0	1.943	to_hand	poldrack-single-stim	s629	False
0.1	286.569	0.445	287.014	0	PA_without_intermediate	test	ward_and_allport	71	15.0	0.445	to_board	poldrack-single-stim	s629	False
0.1	287.02	0.243	287.263	0	PA_without_intermediate	test	ward_and_allport	82	15.0	0.243	to_hand	poldrack-single-stim	s629	False
0.1	287.264	0.304	287.568	0	PA_without_intermediate	test	ward_and_allport	71	15.0	0.304	to_board	poldrack-single-stim	s629	False
1.0	287.575	3.224	287.574	0	PA_without_intermediate	test	ward_and_allport	-1	15.0	n/a	feedback	poldrack-single-stim	s629	False
3.989	290.806	3.989	294.795	1	PA_without_intermediate	test	ward_and_allport	89	16.0	3.989	to_hand	poldrack-single-stim	s629	False
0.1	294.795	1.069	295.864	0	PA_without_intermediate	test	ward_and_allport	71	16.0	1.069	to_board	poldrack-single-stim	s629	False
0.1	295.871	0.763	296.634	0	PA_without_intermediate	test	ward_and_allport	89	16.0	0.763	to_hand	poldrack-single-stim	s629	False
0.1	296.634	0.388	297.022	0	PA_without_intermediate	test	ward_and_allport	82	16.0	0.388	to_board	poldrack-single-stim	s629	False
0.1	297.029	0.597	297.626	0	PA_without_intermediate	test	ward_and_allport	89	16.0	0.597	to_hand	poldrack-single-stim	s629	False
0.1	297.627	0.352	297.979	0	PA_without_intermediate	test	ward_and_allport	71	16.0	0.352	to_board	poldrack-single-stim	s629	False
1.0	297.989	2.272	297.988	0	PA_without_intermediate	test	ward_and_allport	-1	16.0	n/a	feedback	poldrack-single-stim	s629	False
3.369	300.268	3.369	303.637	1	PA_with_intermediate	test	ward_and_allport	89	17.0	3.369	to_hand	poldrack-single-stim	s629	False
0.1	303.638	1.64	305.278	0	PA_with_intermediate	test	ward_and_allport	82	17.0	1.64	to_board	poldrack-single-stim	s629	False
0.1	305.285	1.222	306.507	0	PA_with_intermediate	test	ward_and_allport	89	17.0	1.222	to_hand	poldrack-single-stim	s629	False
0.1	306.508	1.195	307.703	0	PA_with_intermediate	test	ward_and_allport	82	17.0	1.195	to_board	poldrack-single-stim	s629	False
0.1	307.71	0.589	308.299	0	PA_with_intermediate	test	ward_and_allport	89	17.0	0.589	to_hand	poldrack-single-stim	s629	False
0.1	308.3	1.13	309.43	0	PA_with_intermediate	test	ward_and_allport	89	17.0	1.13	to_board	poldrack-single-stim	s629	False
0.1	309.436	2.106	311.542	0	PA_with_intermediate	test	ward_and_allport	82	17.0	2.106	to_hand	poldrack-single-stim	s629	False
0.1	311.543	0.601	312.144	0	PA_with_intermediate	test	ward_and_allport	71	17.0	0.601	to_board	poldrack-single-stim	s629	False
0.1	312.152	0.458	312.61	0	PA_with_intermediate	test	ward_and_allport	82	17.0	0.458	to_hand	poldrack-single-stim	s629	False
0.1	312.61	0.718	313.328	0	PA_with_intermediate	test	ward_and_allport	89	17.0	0.718	to_board	poldrack-single-stim	s629	False
0.1	313.335	0.887	314.222	0	PA_with_intermediate	test	ward_and_allport	71	17.0	0.887	to_hand	poldrack-single-stim	s629	False
0.1	314.222	0.61	314.832	0	PA_with_intermediate	test	ward_and_allport	82	17.0	0.61	to_board	poldrack-single-stim	s629	False
1.0	314.843	3.632	314.842	0	PA_with_intermediate	test	ward_and_allport	-1	17.0	n/a	feedback	poldrack-single-stim	s629	False
2.281	318.482	2.281	320.763	1	PA_without_intermediate	test	ward_and_allport	89	18.0	2.281	to_hand	poldrack-single-stim	s629	False
0.1	320.763	0.606	321.369	0	PA_without_intermediate	test	ward_and_allport	71	18.0	0.606	to_board	poldrack-single-stim	s629	False
0.1	321.377	0.454	321.831	0	PA_without_intermediate	test	ward_and_allport	89	18.0	0.454	to_hand	poldrack-single-stim	s629	False
0.1	321.831	0.395	322.226	0	PA_without_intermediate	test	ward_and_allport	71	18.0	0.395	to_board	poldrack-single-stim	s629	False
0.1	322.235	0.423	322.658	0	PA_without_intermediate	test	ward_and_allport	89	18.0	0.423	to_hand	poldrack-single-stim	s629	False
0.1	322.659	0.398	323.057	0	PA_without_intermediate	test	ward_and_allport	82	18.0	0.398	to_board	poldrack-single-stim	s629	False
1.0	323.069	2.408	323.068	0	PA_without_intermediate	test	ward_and_allport	-1	18.0	n/a	feedback	poldrack-single-stim	s629	False
3.44	325.484	3.44	328.924	1	PA_without_intermediate	test	ward_and_allport	89	19.0	3.44	to_hand	poldrack-single-stim	s629	False
0.1	328.925	0.522	329.447	0	PA_without_intermediate	test	ward_and_allport	82	19.0	0.522	to_board	poldrack-single-stim	s629	False
0.1	329.453	0.943	330.396	0	PA_without_intermediate	test	ward_and_allport	89	19.0	0.943	to_hand	poldrack-single-stim	s629	False
0.1	330.397	0.373	330.77	0	PA_without_intermediate	test	ward_and_allport	71	19.0	0.373	to_board	poldrack-single-stim	s629	False
0.1	330.776	0.347	331.123	0	PA_without_intermediate	test	ward_and_allport	89	19.0	0.347	to_hand	poldrack-single-stim	s629	False
0.1	331.125	0.369	331.494	0	PA_without_intermediate	test	ward_and_allport	82	19.0	0.369	to_board	poldrack-single-stim	s629	False
1.0	331.504	2.0	331.503	0	PA_without_intermediate	test	ward_and_allport	-1	19.0	n/a	feedback	poldrack-single-stim	s629	False
2.115	333.513	2.115	335.628	1	PA_with_intermediate	test	ward_and_allport	89	20.0	2.115	to_hand	poldrack-single-stim	s629	False
0.1	335.628	0.595	336.223	0	PA_with_intermediate	test	ward_and_allport	82	20.0	0.595	to_board	poldrack-single-stim	s629	False
0.1	336.231	0.672	336.903	0	PA_with_intermediate	test	ward_and_allport	89	20.0	0.672	to_hand	poldrack-single-stim	s629	False
0.1	336.903	0.345	337.248	0	PA_with_intermediate	test	ward_and_allport	71	20.0	0.345	to_board	poldrack-single-stim	s629	False
0.1	337.254	0.773	338.027	0	PA_with_intermediate	test	ward_and_allport	82	20.0	0.773	to_hand	poldrack-single-stim	s629	False
0.1	338.028	0.378	338.406	0	PA_with_intermediate	test	ward_and_allport	89	20.0	0.378	to_board	poldrack-single-stim	s629	False
0.1	338.411	0.662	339.073	0	PA_with_intermediate	test	ward_and_allport	89	20.0	0.662	to_hand	poldrack-single-stim	s629	False
0.1	339.074	0.3	339.374	0	PA_with_intermediate	test	ward_and_allport	71	20.0	0.3	to_board	poldrack-single-stim	s629	False
1.0	339.38	2.0	339.379	0	PA_with_intermediate	test	ward_and_allport	-1	20.0	n/a	feedback	poldrack-single-stim	s629	False
3.39	341.385	3.39	344.775	1	PA_with_intermediate	test	ward_and_allport	89	21.0	3.39	to_hand	poldrack-single-stim	s629	False
0.1	344.776	0.283	345.059	0	PA_with_intermediate	test	ward_and_allport	82	21.0	0.283	to_board	poldrack-single-stim	s629	False
0.1	345.064	0.358	345.422	0	PA_with_intermediate	test	ward_and_allport	82	21.0	0.358	to_hand	poldrack-single-stim	s629	False
0.1	345.423	0.33	345.753	0	PA_with_intermediate	test	ward_and_allport	89	21.0	0.33	to_board	poldrack-single-stim	s629	False
0.1	345.761	0.679	346.44	0	PA_with_intermediate	test	ward_and_allport	89	21.0	0.679	to_hand	poldrack-single-stim	s629	False
0.1	346.441	0.412	346.853	0	PA_with_intermediate	test	ward_and_allport	89	21.0	0.412	to_board	poldrack-single-stim	s629	False
0.1	346.862	0.383	347.245	0	PA_with_intermediate	test	ward_and_allport	89	21.0	0.383	to_hand	poldrack-single-stim	s629	False
0.1	347.246	0.306	347.552	0	PA_with_intermediate	test	ward_and_allport	82	21.0	0.306	to_board	poldrack-single-stim	s629	False
0.1	347.559	1.258	348.817	0	PA_with_intermediate	test	ward_and_allport	89	21.0	1.258	to_hand	poldrack-single-stim	s629	False
0.1	348.818	0.433	349.251	0	PA_with_intermediate	test	ward_and_allport	71	21.0	0.433	to_board	poldrack-single-stim	s629	False
0.1	349.257	0.773	350.03	0	PA_with_intermediate	test	ward_and_allport	82	21.0	0.773	to_hand	poldrack-single-stim	s629	False
0.1	350.031	0.91	350.941	0	PA_with_intermediate	test	ward_and_allport	71	21.0	0.91	to_board	poldrack-single-stim	s629	False
1.0	350.95	2.0	350.949	0	PA_with_intermediate	test	ward_and_allport	-1	21.0	n/a	feedback	poldrack-single-stim	s629	False
2.748	352.955	2.748	355.703	1	PA_with_intermediate	test	ward_and_allport	71	22.0	2.748	to_hand	poldrack-single-stim	s629	False
0.1	355.705	0.788	356.493	0	PA_with_intermediate	test	ward_and_allport	82	22.0	0.788	to_board	poldrack-single-stim	s629	False
0.1	356.501	0.922	357.423	0	PA_with_intermediate	test	ward_and_allport	71	22.0	0.922	to_hand	poldrack-single-stim	s629	False
0.1	357.423	0.349	357.772	0	PA_with_intermediate	test	ward_and_allport	89	22.0	0.349	to_board	poldrack-single-stim	s629	False
0.1	357.781	2.537	360.318	0	PA_with_intermediate	test	ward_and_allport	82	22.0	2.537	to_hand	poldrack-single-stim	s629	False
0.1	360.318	0.881	361.199	0	PA_with_intermediate	test	ward_and_allport	89	22.0	0.881	to_board	poldrack-single-stim	s629	False
1.0	361.209	2.408	361.208	0	PA_with_intermediate	test	ward_and_allport	-1	22.0	n/a	feedback	poldrack-single-stim	s629	False
1.71	363.626	1.71	365.336	1	PA_without_intermediate	test	ward_and_allport	89	23.0	1.71	to_hand	poldrack-single-stim	s629	False
0.1	365.336	0.893	366.229	0	PA_without_intermediate	test	ward_and_allport	82	23.0	0.893	to_board	poldrack-single-stim	s629	False
0.1	366.236	0.707	366.943	0	PA_without_intermediate	test	ward_and_allport	89	23.0	0.707	to_hand	poldrack-single-stim	s629	False
0.1	366.944	0.368	367.312	0	PA_without_intermediate	test	ward_and_allport	71	23.0	0.368	to_board	poldrack-single-stim	s629	False
0.1	367.321	0.345	367.666	0	PA_without_intermediate	test	ward_and_allport	89	23.0	0.345	to_hand	poldrack-single-stim	s629	False
0.1	367.668	0.296	367.964	0	PA_without_intermediate	test	ward_and_allport	82	23.0	0.296	to_board	poldrack-single-stim	s629	False
1.0	367.975	2.816	367.974	0	PA_without_intermediate	test	ward_and_allport	-1	23.0	n/a	feedback	poldrack-single-stim	s629	False
2.694	370.797	2.694	373.491	1	PA_with_intermediate	test	ward_and_allport	89	24.0	2.694	to_hand	poldrack-single-stim	s629	False
0.1	373.493	0.382	373.875	0	PA_with_intermediate	test	ward_and_allport	82	24.0	0.382	to_board	poldrack-single-stim	s629	False
0.1	373.881	0.58	374.461	0	PA_with_intermediate	test	ward_and_allport	89	24.0	0.58	to_hand	poldrack-single-stim	s629	False
0.1	374.461	0.461	374.922	0	PA_with_intermediate	test	ward_and_allport	71	24.0	0.461	to_board	poldrack-single-stim	s629	False
0.1	374.931	0.503	375.434	0	PA_with_intermediate	test	ward_and_allport	82	24.0	0.503	to_hand	poldrack-single-stim	s629	False
0.1	375.436	0.581	376.017	0	PA_with_intermediate	test	ward_and_allport	89	24.0	0.581	to_board	poldrack-single-stim	s629	False
1.0	376.028	4.176	376.027	0	PA_with_intermediate	test	ward_and_allport	-1	24.0	n/a	feedback	poldrack-single-stim	s629	False
1.302	380.212	1.302	381.514	1	PA_with_intermediate	test	ward_and_allport	82	25.0	1.302	to_hand	poldrack-single-stim	s629	False
0.1	381.515	1.456	382.971	0	PA_with_intermediate	test	ward_and_allport	89	25.0	1.456	to_board	poldrack-single-stim	s629	False
0.1	382.978	1.483	384.461	0	PA_with_intermediate	test	ward_and_allport	89	25.0	1.483	to_hand	poldrack-single-stim	s629	False
0.1	384.463	0.624	385.087	0	PA_with_intermediate	test	ward_and_allport	89	25.0	0.624	to_board	poldrack-single-stim	s629	False
0.1	385.096	1.001	386.097	0	PA_with_intermediate	test	ward_and_allport	82	25.0	1.001	to_hand	poldrack-single-stim	s629	False
0.1	386.099	1.148	387.247	0	PA_with_intermediate	test	ward_and_allport	89	25.0	1.148	to_board	poldrack-single-stim	s629	False
0.1	387.256	1.177	388.433	0	PA_with_intermediate	test	ward_and_allport	82	25.0	1.177	to_hand	poldrack-single-stim	s629	False
0.1	388.434	0.729	389.163	0	PA_with_intermediate	test	ward_and_allport	82	25.0	0.729	to_board	poldrack-single-stim	s629	False
0.1	389.171	2.373	391.544	0	PA_with_intermediate	test	ward_and_allport	89	25.0	2.373	to_hand	poldrack-single-stim	s629	False
0.1	391.546	1.089	392.635	0	PA_with_intermediate	test	ward_and_allport	71	25.0	1.089	to_board	poldrack-single-stim	s629	False
0.1	392.642	0.448	393.09	0	PA_with_intermediate	test	ward_and_allport	89	25.0	0.448	to_hand	poldrack-single-stim	s629	False
0.1	393.091	0.596	393.687	0	PA_with_intermediate	test	ward_and_allport	82	25.0	0.596	to_board	poldrack-single-stim	s629	False
0.1	393.696	0.955	394.651	0	PA_with_intermediate	test	ward_and_allport	71	25.0	0.955	to_hand	poldrack-single-stim	s629	False
0.1	394.651	0.384	395.035	0	PA_with_intermediate	test	ward_and_allport	89	25.0	0.384	to_board	poldrack-single-stim	s629	False
1.0	395.047	3.36	395.046	0	PA_with_intermediate	test	ward_and_allport	-1	25.0	n/a	feedback	poldrack-single-stim	s629	False
1.937	398.414	1.937	400.351	1	PA_with_intermediate	test	ward_and_allport	71	26.0	1.937	to_hand	poldrack-single-stim	s629	False
0.1	400.352	0.323	400.675	0	PA_with_intermediate	test	ward_and_allport	89	26.0	0.323	to_board	poldrack-single-stim	s629	False
0.1	400.681	0.439	401.12	0	PA_with_intermediate	test	ward_and_allport	71	26.0	0.439	to_hand	poldrack-single-stim	s629	False
0.1	401.121	0.488	401.609	0	PA_with_intermediate	test	ward_and_allport	82	26.0	0.488	to_board	poldrack-single-stim	s629	False
0.1	401.616	0.879	402.495	0	PA_with_intermediate	test	ward_and_allport	89	26.0	0.879	to_hand	poldrack-single-stim	s629	False
0.1	402.497	0.339	402.836	0	PA_with_intermediate	test	ward_and_allport	82	26.0	0.339	to_board	poldrack-single-stim	s629	False
1.0	402.845	2.0	402.844	0	PA_with_intermediate	test	ward_and_allport	-1	26.0	n/a	feedback	poldrack-single-stim	s629	False
3.389	404.854	3.389	408.243	1	PA_without_intermediate	test	ward_and_allport	82	27.0	3.389	to_hand	poldrack-single-stim	s629	False
0.1	408.243	0.786	409.029	0	PA_without_intermediate	test	ward_and_allport	71	27.0	0.786	to_board	poldrack-single-stim	s629	False
0.1	409.039	0.804	409.843	0	PA_without_intermediate	test	ward_and_allport	71	27.0	0.804	to_hand	poldrack-single-stim	s629	False
0.1	409.843	0.014	409.857	0	PA_without_intermediate	test	ward_and_allport	89	27.0	0.014	to_board	poldrack-single-stim	s629	False
0.1	409.868	1.793	411.661	0	PA_without_intermediate	test	ward_and_allport	82	27.0	1.793	to_hand	poldrack-single-stim	s629	False
0.1	411.662	0.47	412.132	0	PA_without_intermediate	test	ward_and_allport	71	27.0	0.47	to_board	poldrack-single-stim	s629	False
0.1	412.143	0.569	412.712	0	PA_without_intermediate	test	ward_and_allport	82	27.0	0.569	to_hand	poldrack-single-stim	s629	False
0.1	412.712	0.402	413.114	0	PA_without_intermediate	test	ward_and_allport	89	27.0	0.402	to_board	poldrack-single-stim	s629	False
1.0	413.125	2.408	413.124	0	PA_without_intermediate	test	ward_and_allport	-1	27.0	n/a	feedback	poldrack-single-stim	s629	False
2.109	415.54	2.109	417.649	1	PA_with_intermediate	test	ward_and_allport	82	28.0	2.109	to_hand	poldrack-single-stim	s629	False
0.1	417.65	0.701	418.351	0	PA_with_intermediate	test	ward_and_allport	71	28.0	0.701	to_board	poldrack-single-stim	s629	False
0.1	418.358	0.597	418.955	0	PA_with_intermediate	test	ward_and_allport	82	28.0	0.597	to_hand	poldrack-single-stim	s629	False
0.1	418.956	0.529	419.485	0	PA_with_intermediate	test	ward_and_allport	89	28.0	0.529	to_board	poldrack-single-stim	s629	False
0.1	419.494	0.765	420.259	0	PA_with_intermediate	test	ward_and_allport	82	28.0	0.765	to_hand	poldrack-single-stim	s629	False
0.1	420.26	1.07	421.33	0	PA_with_intermediate	test	ward_and_allport	71	28.0	1.07	to_board	poldrack-single-stim	s629	False
0.1	421.34	0.641	421.981	0	PA_with_intermediate	test	ward_and_allport	71	28.0	0.641	to_hand	poldrack-single-stim	s629	False
0.1	421.983	0.435	422.418	0	PA_with_intermediate	test	ward_and_allport	82	28.0	0.435	to_board	poldrack-single-stim	s629	False
0.1	422.425	2.069	424.494	0	PA_with_intermediate	test	ward_and_allport	71	28.0	2.069	to_hand	poldrack-single-stim	s629	False
0.1	424.496	1.077	425.573	0	PA_with_intermediate	test	ward_and_allport	82	28.0	1.077	to_board	poldrack-single-stim	s629	False
0.1	425.583	1.207	426.79	0	PA_with_intermediate	test	ward_and_allport	89	28.0	1.207	to_hand	poldrack-single-stim	s629	False
0.1	426.791	0.376	427.167	0	PA_with_intermediate	test	ward_and_allport	71	28.0	0.376	to_board	poldrack-single-stim	s629	False
1.0	427.182	2.816	427.181	0	PA_with_intermediate	test	ward_and_allport	-1	28.0	n/a	feedback	poldrack-single-stim	s629	False
3.723	430.004	3.723	433.727	1	PA_without_intermediate	test	ward_and_allport	82	29.0	3.723	to_hand	poldrack-single-stim	s629	False
0.1	433.727	1.123	434.85	0	PA_without_intermediate	test	ward_and_allport	71	29.0	1.123	to_board	poldrack-single-stim	s629	False
0.1	434.859	1.342	436.201	0	PA_without_intermediate	test	ward_and_allport	82	29.0	1.342	to_hand	poldrack-single-stim	s629	False
0.1	436.203	1.055	437.258	0	PA_without_intermediate	test	ward_and_allport	71	29.0	1.055	to_board	poldrack-single-stim	s629	False
0.1	437.268	0.865	438.133	0	PA_without_intermediate	test	ward_and_allport	82	29.0	0.865	to_hand	poldrack-single-stim	s629	False
0.1	438.135	0.353	438.488	0	PA_without_intermediate	test	ward_and_allport	89	29.0	0.353	to_board	poldrack-single-stim	s629	False
1.0	438.505	3.088	438.504	0	PA_without_intermediate	test	ward_and_allport	-1	29.0	n/a	feedback	poldrack-single-stim	s629	False
2.222	446.604	2.222	448.826	1	PA_without_intermediate	test	ward_and_allport	89	30.0	2.222	to_hand	poldrack-single-stim	s629	False
0.1	448.827	1.231	450.058	0	PA_without_intermediate	test	ward_and_allport	71	30.0	1.231	to_board	poldrack-single-stim	s629	False
0.1	450.069	0.496	450.565	0	PA_without_intermediate	test	ward_and_allport	89	30.0	0.496	to_hand	poldrack-single-stim	s629	False
0.1	450.565	0.466	451.031	0	PA_without_intermediate	test	ward_and_allport	71	30.0	0.466	to_board	poldrack-single-stim	s629	False
0.1	451.043	0.449	451.492	0	PA_without_intermediate	test	ward_and_allport	89	30.0	0.449	to_hand	poldrack-single-stim	s629	False
0.1	451.493	0.532	452.025	0	PA_without_intermediate	test	ward_and_allport	82	30.0	0.532	to_board	poldrack-single-stim	s629	False
1.0	452.038	2.136	452.037	0	PA_without_intermediate	test	ward_and_allport	-1	30.0	n/a	feedback	poldrack-single-stim	s629	False
2.654	454.183	2.654	456.837	1	PA_without_intermediate	test	ward_and_allport	89	31.0	2.654	to_hand	poldrack-single-stim	s629	False
0.1	456.838	0.945	457.783	0	PA_without_intermediate	test	ward_and_allport	82	31.0	0.945	to_board	poldrack-single-stim	s629	False
0.1	457.79	0.939	458.729	0	PA_without_intermediate	test	ward_and_allport	89	31.0	0.939	to_hand	poldrack-single-stim	s629	False
0.1	458.73	1.934	460.664	0	PA_without_intermediate	test	ward_and_allport	89	31.0	1.934	to_board	poldrack-single-stim	s629	False
0.1	460.673	0.675	461.348	0	PA_without_intermediate	test	ward_and_allport	82	31.0	0.675	to_hand	poldrack-single-stim	s629	False
0.1	461.349	0.516	461.865	0	PA_without_intermediate	test	ward_and_allport	71	31.0	0.516	to_board	poldrack-single-stim	s629	False
0.1	461.874	0.539	462.413	0	PA_without_intermediate	test	ward_and_allport	89	31.0	0.539	to_hand	poldrack-single-stim	s629	False
0.1	462.415	0.307	462.722	0	PA_without_intermediate	test	ward_and_allport	82	31.0	0.307	to_board	poldrack-single-stim	s629	False
0.1	462.733	1.466	464.199	0	PA_without_intermediate	test	ward_and_allport	89	31.0	1.466	to_hand	poldrack-single-stim	s629	False
0.1	464.2	0.274	464.474	0	PA_without_intermediate	test	ward_and_allport	71	31.0	0.274	to_board	poldrack-single-stim	s629	False
1.0	464.484	7.168	464.483	0	PA_without_intermediate	test	ward_and_allport	-1	31.0	n/a	feedback	poldrack-single-stim	s629	False
3.382	471.659	3.382	475.041	1	PA_without_intermediate	test	ward_and_allport	71	32.0	3.382	to_hand	poldrack-single-stim	s629	False
0.1	475.043	1.644	476.687	0	PA_without_intermediate	test	ward_and_allport	89	32.0	1.644	to_board	poldrack-single-stim	s629	False
0.1	476.697	0.653	477.35	0	PA_without_intermediate	test	ward_and_allport	71	32.0	0.653	to_hand	poldrack-single-stim	s629	False
0.1	477.35	0.312	477.662	0	PA_without_intermediate	test	ward_and_allport	82	32.0	0.312	to_board	poldrack-single-stim	s629	False
0.1	477.673	0.419	478.092	0	PA_without_intermediate	test	ward_and_allport	71	32.0	0.419	to_hand	poldrack-single-stim	s629	False
0.1	478.093	0.468	478.561	0	PA_without_intermediate	test	ward_and_allport	89	32.0	0.468	to_board	poldrack-single-stim	s629	False
1.0	478.575	2.816	478.574	0	PA_without_intermediate	test	ward_and_allport	-1	32.0	n/a	feedback	poldrack-single-stim	s629	False
3.559	481.399	3.559	484.958	1	PA_with_intermediate	test	ward_and_allport	89	33.0	3.559	to_hand	poldrack-single-stim	s629	False
0.1	484.959	0.93	485.889	0	PA_with_intermediate	test	ward_and_allport	82	33.0	0.93	to_board	poldrack-single-stim	s629	False
0.1	485.896	0.559	486.455	0	PA_with_intermediate	test	ward_and_allport	89	33.0	0.559	to_hand	poldrack-single-stim	s629	False
0.1	486.457	0.365	486.822	0	PA_with_intermediate	test	ward_and_allport	71	33.0	0.365	to_board	poldrack-single-stim	s629	False
0.1	486.831	1.148	487.979	0	PA_with_intermediate	test	ward_and_allport	82	33.0	1.148	to_hand	poldrack-single-stim	s629	False
0.1	487.98	0.841	488.821	0	PA_with_intermediate	test	ward_and_allport	89	33.0	0.841	to_board	poldrack-single-stim	s629	False
1.0	488.834	2.952	488.833	0	PA_with_intermediate	test	ward_and_allport	-1	33.0	n/a	feedback	poldrack-single-stim	s629	False
2.101	491.797	2.101	493.898	1	PA_with_intermediate	test	ward_and_allport	82	34.0	2.101	to_hand	poldrack-single-stim	s629	False
0.1	493.898	2.182	496.08	0	PA_with_intermediate	test	ward_and_allport	89	34.0	2.182	to_board	poldrack-single-stim	s629	False
0.1	496.09	0.638	496.728	0	PA_with_intermediate	test	ward_and_allport	82	34.0	0.638	to_hand	poldrack-single-stim	s629	False
0.1	496.729	0.351	497.08	0	PA_with_intermediate	test	ward_and_allport	71	34.0	0.351	to_board	poldrack-single-stim	s629	False
0.1	497.09	0.382	497.472	0	PA_with_intermediate	test	ward_and_allport	89	34.0	0.382	to_hand	poldrack-single-stim	s629	False
0.1	497.474	0.358	497.832	0	PA_with_intermediate	test	ward_and_allport	71	34.0	0.358	to_board	poldrack-single-stim	s629	False
1.0	497.842	2.136	497.841	0	PA_with_intermediate	test	ward_and_allport	-1	34.0	n/a	feedback	poldrack-single-stim	s629	False
2.676	499.987	2.676	502.663	1	PA_without_intermediate	test	ward_and_allport	82	35.0	2.676	to_hand	poldrack-single-stim	s629	False
0.1	502.664	0.453	503.117	0	PA_without_intermediate	test	ward_and_allport	89	35.0	0.453	to_board	poldrack-single-stim	s629	False
0.1	503.125	1.182	504.307	0	PA_without_intermediate	test	ward_and_allport	82	35.0	1.182	to_hand	poldrack-single-stim	s629	False
0.1	504.308	0.39	504.698	0	PA_without_intermediate	test	ward_and_allport	71	35.0	0.39	to_board	poldrack-single-stim	s629	False
0.1	504.709	0.624	505.333	0	PA_without_intermediate	test	ward_and_allport	89	35.0	0.624	to_hand	poldrack-single-stim	s629	False
0.1	505.335	1.735	507.07	0	PA_without_intermediate	test	ward_and_allport	71	35.0	1.735	to_board	poldrack-single-stim	s629	False
0.1	507.08	0.874	507.954	0	PA_without_intermediate	test	ward_and_allport	71	35.0	0.874	to_hand	poldrack-single-stim	s629	False
0.1	507.956	1.198	509.154	0	PA_without_intermediate	test	ward_and_allport	89	35.0	1.198	to_board	poldrack-single-stim	s629	False
0.1	509.163	1.676	510.839	0	PA_without_intermediate	test	ward_and_allport	82	35.0	1.676	to_hand	poldrack-single-stim	s629	False
0.1	510.84	0.265	511.105	0	PA_without_intermediate	test	ward_and_allport	89	35.0	0.265	to_board	poldrack-single-stim	s629	False
1.0	511.117	2.68	511.116	0	PA_without_intermediate	test	ward_and_allport	-1	35.0	n/a	feedback	poldrack-single-stim	s629	False
4.171	513.808	4.171	517.979	1	PA_without_intermediate	test	ward_and_allport	71	36.0	4.171	to_hand	poldrack-single-stim	s629	False
0.1	517.979	1.238	519.217	0	PA_without_intermediate	test	ward_and_allport	89	36.0	1.238	to_board	poldrack-single-stim	s629	False
0.1	519.228	1.311	520.539	0	PA_without_intermediate	test	ward_and_allport	71	36.0	1.311	to_hand	poldrack-single-stim	s629	False
0.1	520.54	0.788	521.328	0	PA_without_intermediate	test	ward_and_allport	89	36.0	0.788	to_board	poldrack-single-stim	s629	False
0.1	521.338	1.538	522.876	0	PA_without_intermediate	test	ward_and_allport	71	36.0	1.538	to_hand	poldrack-single-stim	s629	False
0.1	522.878	1.103	523.981	0	PA_without_intermediate	test	ward_and_allport	82	36.0	1.103	to_board	poldrack-single-stim	s629	False
1.0	523.995	3.088	523.994	0	PA_without_intermediate	test	ward_and_allport	-1	36.0	n/a	feedback	poldrack-single-stim	s629	False
3.446	527.094	3.446	530.54	1	PA_with_intermediate	test	ward_and_allport	82	37.0	3.446	to_hand	poldrack-single-stim	s629	False
0.1	530.541	1.194	531.735	0	PA_with_intermediate	test	ward_and_allport	71	37.0	1.194	to_board	poldrack-single-stim	s629	False
0.1	531.744	2.099	533.843	0	PA_with_intermediate	test	ward_and_allport	71	37.0	2.099	to_hand	poldrack-single-stim	s629	False
0.1	533.844	0.481	534.325	0	PA_with_intermediate	test	ward_and_allport	71	37.0	0.481	to_board	poldrack-single-stim	s629	False
0.1	534.337	1.204	535.541	0	PA_with_intermediate	test	ward_and_allport	82	37.0	1.204	to_hand	poldrack-single-stim	s629	False
0.1	535.542	1.025	536.567	0	PA_with_intermediate	test	ward_and_allport	71	37.0	1.025	to_board	poldrack-single-stim	s629	False
0.1	536.58	2.037	538.617	0	PA_with_intermediate	test	ward_and_allport	71	37.0	2.037	to_hand	poldrack-single-stim	s629	False
0.1	538.618	0.357	538.975	0	PA_with_intermediate	test	ward_and_allport	89	37.0	0.357	to_board	poldrack-single-stim	s629	False
0.1	538.986	0.338	539.324	0	PA_with_intermediate	test	ward_and_allport	71	37.0	0.338	to_hand	poldrack-single-stim	s629	False
0.1	539.325	0.532	539.857	0	PA_with_intermediate	test	ward_and_allport	89	37.0	0.532	to_board	poldrack-single-stim	s629	False
0.1	539.868	0.936	540.804	0	PA_with_intermediate	test	ward_and_allport	82	37.0	0.936	to_hand	poldrack-single-stim	s629	False
0.1	540.805	0.806	541.611	0	PA_with_intermediate	test	ward_and_allport	82	37.0	0.806	to_board	poldrack-single-stim	s629	False
0.1	541.619	2.158	543.777	0	PA_with_intermediate	test	ward_and_allport	89	37.0	2.158	to_hand	poldrack-single-stim	s629	False
0.1	543.779	1.493	545.272	0	PA_with_intermediate	test	ward_and_allport	89	37.0	1.493	to_board	poldrack-single-stim	s629	False
0.1	545.282	1.064	546.346	0	PA_with_intermediate	test	ward_and_allport	89	37.0	1.064	to_hand	poldrack-single-stim	s629	False
0.1	546.346	0.529	546.875	0	PA_with_intermediate	test	ward_and_allport	82	37.0	0.529	to_board	poldrack-single-stim	s629	False
0.1	546.888	0.545	547.433	0	PA_with_intermediate	test	ward_and_allport	89	37.0	0.545	to_hand	poldrack-single-stim	s629	False
0.1	547.434	0.36	547.794	0	PA_with_intermediate	test	ward_and_allport	71	37.0	0.36	to_board	poldrack-single-stim	s629	False
0.1	547.803	1.072	548.875	0	PA_with_intermediate	test	ward_and_allport	82	37.0	1.072	to_hand	poldrack-single-stim	s629	False
0.1	548.877	0.374	549.251	0	PA_with_intermediate	test	ward_and_allport	71	37.0	0.374	to_board	poldrack-single-stim	s629	False
1.0	549.265	2.0	549.264	0	PA_with_intermediate	test	ward_and_allport	-1	37.0	n/a	feedback	poldrack-single-stim	s629	False
3.041	551.272	3.041	554.313	1	PA_without_intermediate	test	ward_and_allport	89	38.0	3.041	to_hand	poldrack-single-stim	s629	False
0.1	554.314	0.776	555.09	0	PA_without_intermediate	test	ward_and_allport	82	38.0	0.776	to_board	poldrack-single-stim	s629	False
0.1	555.1	1.431	556.531	0	PA_without_intermediate	test	ward_and_allport	89	38.0	1.431	to_hand	poldrack-single-stim	s629	False
0.1	556.532	0.459	556.991	0	PA_without_intermediate	test	ward_and_allport	82	38.0	0.459	to_board	poldrack-single-stim	s629	False
0.1	557.002	0.83	557.832	0	PA_without_intermediate	test	ward_and_allport	89	38.0	0.83	to_hand	poldrack-single-stim	s629	False
0.1	557.834	0.274	558.108	0	PA_without_intermediate	test	ward_and_allport	71	38.0	0.274	to_board	poldrack-single-stim	s629	False
1.0	558.118	2.0	558.117	0	PA_without_intermediate	test	ward_and_allport	-1	38.0	n/a	feedback	poldrack-single-stim	s629	False
3.276	560.128	3.276	563.404	1	PA_without_intermediate	test	ward_and_allport	71	39.0	3.276	to_hand	poldrack-single-stim	s629	False
0.1	563.405	0.874	564.279	0	PA_without_intermediate	test	ward_and_allport	82	39.0	0.874	to_board	poldrack-single-stim	s629	False
0.1	564.287	1.805	566.092	0	PA_without_intermediate	test	ward_and_allport	71	39.0	1.805	to_hand	poldrack-single-stim	s629	False
0.1	566.093	0.465	566.558	0	PA_without_intermediate	test	ward_and_allport	82	39.0	0.465	to_board	poldrack-single-stim	s629	False
0.1	566.568	1.451	568.019	0	PA_without_intermediate	test	ward_and_allport	71	39.0	1.451	to_hand	poldrack-single-stim	s629	False
0.1	568.021	0.332	568.353	0	PA_without_intermediate	test	ward_and_allport	89	39.0	0.332	to_board	poldrack-single-stim	s629	False
1.0	568.369	2.0	568.368	0	PA_without_intermediate	test	ward_and_allport	-1	39.0	n/a	feedback	poldrack-single-stim	s629	False
