onset	duration	movement_onset	coded_response	experiment_exp_id	item_coding	item_responses	item_text	possible_responses	response_time	survey	trial_type	worker_id	junk
1.013	8.5	5.528	2.0	survey_medley	reverse	66,89,71,82,77	I wish I had more self-discipline.	66,89,71,82,77	4.515	brief	Q15	s629	False
10.087	8.5	15.732	2.0	survey_medley	forward	66,89	Do you sometimes like doing things that are a bit frightening?	66,89,71,82,77	5.645	impulsive_venture	Q39	s629	False
20.385	8.5	24.433	5.0	survey_medley	forward	66,89,71,82,77	As I get older, I begin to experience time as limited.	66,89,71,82,77	4.048	future_time	Q31	s629	False
32.179	8.5	35.376	4.0	survey_medley	forward	66,89,71,82,77	I am good at resisting temptation.	66,89,71,82,77	3.197	brief	Q09	s629	False
41.39	8.5	46.937	3.0	survey_medley	forward	66,89,71,82	I tend to act without thinking when I am really excited.	66,89,71,82,77	5.547	upps	Q37	s629	False
50.871	8.5	53.661	4.0	survey_medley	forward	66,89,71,82,77	I am diligent.	66,89,71,82,77	2.79	grit	Q08	s629	False
60.828	8.5	66.588	1.0	survey_medley	reverse	66,89,71,82,77	I often set a goal but later choose to pursue a different one.	66,89,71,82,77	5.76	grit	Q05	s629	False
72.69	8.5	78.369	3.0	survey_medley	forward	66,89,71,82	When overjoyed, I feel like I cant stop myself from going overboard.	66,89,71,82,77	5.679	upps	Q35	s629	False
81.9	8.5	86.4	4.0	survey_medley	reverse	66,89,71,82,77	I often act without thinking through all the alternatives.	66,89,71,82,77	4.5	brief	Q21	s629	False
93.422	8.5	96.413	3.0	survey_medley	reverse	66,89,71,82,77	I have trouble concentrating.	66,89,71,82,77	2.991	brief	Q18	s629	False
102.427	8.5	106.355	5.0	survey_medley	forward	66,89,71,82,77	Most of my life lies ahead of me.	66,89,71,82,77	3.928	future_time	Q25	s629	False
111.569	8.5	115.749	3.0	survey_medley	reverse	66,89,71,82,77	I have a hard time breaking bad habits.	66,89,71,82,77	4.18	brief	Q10	s629	False
121.187	8.5	126.08	3.0	survey_medley	reverse	66,89,71,82,77	I have difficulty maintaining my focus on projects that take more than a few months to complete.	66,89,71,82,77	4.893	grit	Q06	s629	False
130.805	8.5	136.926	3.0	survey_medley	forward	66,89,71,82	Sometimes when I feel bad, I can't seem to stop what I am doing even though it is making me feel worse.	66,89,71,82,77	6.121	upps	Q32	s629	False
141.103	8.5	146.252	2.0	survey_medley	reverse	66,89,71,82,77	New ideas and projects sometimes distract me from previous ones.	66,89,71,82,77	5.149	grit	Q01	s629	False
151.198	8.5	155.833	4.0	survey_medley	forward	66,89,71,82,77	I have the sense that time is running out.	66,89,71,82,77	4.635	future_time	Q29	s629	False
160.272	8.5	164.216	5.0	survey_medley	forward	66,89,71,82,77	I refuse things that are bad for me.	66,89,71,82,77	3.944	brief	Q14	s629	False
170.433	8.5	175.727	3.0	survey_medley	forward	66,89,71,82	Others would say I make bad choices when I am extremely happy about something.	66,89,71,82,77	5.294	upps	Q33	s629	False
180.323	8.5	183.721	3.0	survey_medley	forward	66,89,71,82,77	My future seems infinite to me.	66,89,71,82,77	3.398	future_time	Q26	s629	False
190.009	8.5	195.239	2.0	survey_medley	forward	66,89,71,82	When I get really happy about something, I tend to do things that can have bad consequences.	66,89,71,82,77	5.23	upps	Q34	s629	False
199.559	8.5	204.288	4.0	survey_medley	forward	66,89,71,82,77	I am able to work effectively toward long-term goals.	66,89,71,82,77	4.729	brief	Q19	s629	False
210.876	8.5	214.723	4.0	survey_medley	reverse	66,89,71,82,77	I say inappropriate things.	66,89,71,82,77	3.847	brief	Q12	s629	False
220.494	8.5	225.728	1.0	survey_medley	forward	66,89,71,82	When I am really excited, I tend not to think of the consequences of my actions.	66,89,71,82,77	5.234	upps	Q36	s629	False
229.704	8.5	235.086	5.0	survey_medley	forward	66,89,71,82,77	I expect that I will set many new goals in the future.	66,89,71,82,77	5.382	future_time	Q23	s629	False
239.254	8.5	241.056	5.0	survey_medley	forward	66,89,71,82,77	My future is filled with possibilities.	66,89,71,82,77	1.802	future_time	Q24	s629	False
248.735	8.5	254.085	4.0	survey_medley	forward	66,89,71,82,77	People would say that I have iron self-discipline.	66,89,71,82,77	5.35	brief	Q16	s629	False
257.945	8.5	264.603	2.0	survey_medley	forward	66,89	Would you enjoy the sensation of skiing very fast down a high mountain slope?	66,89,71,82,77	6.658	impulsive_venture	Q40	s629	False
268.039	8.5	271.779	4.0	survey_medley	forward	66,89,71,82,77	I could do anything I want in the future.	66,89,71,82,77	3.74	future_time	Q27	s629	False
278.948	8.5	283.697	3.0	survey_medley	forward	66,89,71,82,77	There are only limited possibilities in my future.	66,89,71,82,77	4.749	future_time	Q30	s629	False
288.838	8.5	294.473	5.0	survey_medley	reverse	66,89,71,82,77	Sometimes I can't stop myself from doing something, even if I know it is wrong.	66,89,71,82,77	5.635	brief	Q20	s629	False
297.98	8.5	302.344	3.0	survey_medley	reverse	66,89,71,82,77	Pleasure and fun sometimes keep me from getting work done.	66,89,71,82,77	4.364	brief	Q17	s629	False
308.345	8.5	311.439	5.0	survey_medley	reverse	66,89,71,82,77	I do certain things that are bad for me, if they are fun.	66,89,71,82,77	3.094	brief	Q13	s629	False
318.03	8.5	323.045	5.0	survey_medley	forward	66,89,71,82,77	Setbacks don't discourage me.	66,89,71,82,77	5.015	grit	Q02	s629	False
328.192	8.5	330.322	5.0	survey_medley	forward	66,89,71,82,77	I am a hard worker.	66,89,71,82,77	2.13	grit	Q04	s629	False
337.403	8.5	340.135	5.0	survey_medley	forward	66,89,71,82,77	I finish whatever I begin.	66,89,71,82,77	2.732	grit	Q07	s629	False
348.585	8.5	350.859	4.0	survey_medley	reverse	66,89,71,82,77	I am lazy.	66,89,71,82,77	2.274	brief	Q11	s629	False
357.863	8.5	363.892	0.0	survey_medley	forward	66,89	Do you welcome new and exciting experiences and sensations even if they are a little frightening and unconventional?	66,89,71,82,77	6.029	impulsive_venture	Q38	s629	True
367.48	8.5	371.59	5.0	survey_medley	forward	66,89,71,82,77	There is plenty of time left in my life to make new plans.	66,89,71,82,77	4.11	future_time	Q28	s629	False
376.554	8.5	380.959	3.0	survey_medley	reverse	66,89,71,82,77	I have been obsessed with a certain idea or project for a short time but later lost interest.	66,89,71,82,77	4.405	grit	Q03	s629	False
385.558	8.5	388.266	5.0	survey_medley	forward	66,89,71,82,77	Many opportunities await me in the future.	66,89,71,82,77	2.708	future_time	Q22	s629	False
