onset	duration	SS_delay	block_duration	correct	correct_response	experiment_exp_id	key_press	passed_check	response_time	stop_response	stopped	trial_id	trial_type	worker_id	junk
3.022	0.85	0.4	2.65	1.0	89.0	motor_selective_stop_signal	89.0	True	0.796	89.0	False	stim	crit_go	s629	False
5.678	0.85	0.4	2.25	1.0	89.0	motor_selective_stop_signal	-1.0	True	n/a	89.0	True	stim	crit_stop_success	s629	False
7.934	0.85	0.45	2.65	1.0	71.0	motor_selective_stop_signal	71.0	True	1.016	89.0	False	stim	noncrit_signal	s629	False
10.588	0.85	0.45	2.35	1.0	71.0	motor_selective_stop_signal	71.0	True	0.653	89.0	False	stim	noncrit_nosignal	s629	False
12.943	0.85	0.45	2.25	1.0	71.0	motor_selective_stop_signal	71.0	True	0.745	89.0	False	stim	noncrit_nosignal	s629	False
15.199	0.85	0.45	2.25	1.0	89.0	motor_selective_stop_signal	89.0	True	0.751	89.0	False	stim	crit_go	s629	False
17.455	0.85	0.45	2.25	1.0	71.0	motor_selective_stop_signal	71.0	True	0.6	89.0	False	stim	noncrit_nosignal	s629	False
19.711	0.85	0.45	2.35	1.0	71.0	motor_selective_stop_signal	71.0	True	0.577	89.0	False	stim	noncrit_nosignal	s629	False
22.067	0.85	0.45	2.55	1.0	71.0	motor_selective_stop_signal	71.0	True	0.573	89.0	False	stim	noncrit_signal	s629	False
24.623	0.85	0.45	2.35	1.0	89.0	motor_selective_stop_signal	89.0	True	0.593	89.0	False	stim	crit_go	s629	False
26.979	0.85	0.45	2.45	1.0	89.0	motor_selective_stop_signal	-1.0	True	n/a	89.0	True	stim	crit_stop_success	s629	False
29.435	0.85	0.5	2.45	1.0	89.0	motor_selective_stop_signal	89.0	True	0.677	89.0	False	stim	crit_go	s629	False
31.89	0.85	0.5	2.35	1.0	89.0	motor_selective_stop_signal	89.0	True	0.645	89.0	False	stim	crit_stop_failure	s629	False
34.246	0.85	0.45	2.25	0.0	71.0	motor_selective_stop_signal	-1.0	True	n/a	89.0	True	stim	noncrit_signal	s629	False
36.5	0.85	0.45	2.55	1.0	71.0	motor_selective_stop_signal	71.0	True	0.674	89.0	False	stim	noncrit_nosignal	s629	False
39.057	0.85	0.45	2.55	1.0	71.0	motor_selective_stop_signal	71.0	True	0.684	89.0	False	stim	noncrit_nosignal	s629	False
41.613	0.85	0.45	2.25	1.0	71.0	motor_selective_stop_signal	71.0	True	0.566	89.0	False	stim	noncrit_signal	s629	False
43.869	0.85	0.45	2.25	1.0	89.0	motor_selective_stop_signal	89.0	True	1.042	89.0	False	stim	crit_go	s629	False
46.126	0.85	0.45	2.45	1.0	89.0	motor_selective_stop_signal	89.0	True	0.597	89.0	False	stim	crit_stop_failure	s629	False
48.581	0.85	0.4	2.35	1.0	71.0	motor_selective_stop_signal	71.0	True	0.821	89.0	False	stim	noncrit_nosignal	s629	False
50.937	0.85	0.4	2.25	1.0	89.0	motor_selective_stop_signal	89.0	True	0.821	89.0	False	stim	crit_go	s629	False
53.193	0.85	0.4	3.15	1.0	89.0	motor_selective_stop_signal	89.0	True	0.815	89.0	False	stim	crit_go	s629	False
56.349	0.85	0.4	2.65	1.0	89.0	motor_selective_stop_signal	89.0	True	0.643	89.0	False	stim	crit_go	s629	False
59.005	0.85	0.4	2.25	1.0	71.0	motor_selective_stop_signal	71.0	True	0.616	89.0	False	stim	noncrit_signal	s629	False
61.261	0.85	0.4	2.45	1.0	89.0	motor_selective_stop_signal	89.0	True	0.837	89.0	False	stim	crit_stop_failure	s629	False
63.717	0.85	0.35	2.85	0.0	71.0	motor_selective_stop_signal	-1.0	True	n/a	89.0	True	stim	noncrit_signal	s629	False
66.571	0.85	0.35	2.45	1.0	89.0	motor_selective_stop_signal	89.0	True	0.728	89.0	False	stim	crit_go	s629	False
69.028	0.85	0.35	2.25	1.0	89.0	motor_selective_stop_signal	89.0	True	0.747	89.0	False	stim	crit_go	s629	False
71.285	0.85	0.35	2.25	1.0	89.0	motor_selective_stop_signal	89.0	True	0.814	89.0	False	stim	crit_go	s629	False
73.542	0.85	0.35	2.55	1.0	71.0	motor_selective_stop_signal	71.0	True	0.932	89.0	False	stim	noncrit_signal	s629	False
76.098	0.85	0.35	2.25	1.0	89.0	motor_selective_stop_signal	89.0	True	0.597	89.0	False	stim	crit_stop_failure	s629	False
78.353	0.85	0.3	2.35	1.0	89.0	motor_selective_stop_signal	89.0	True	0.691	89.0	False	stim	crit_go	s629	False
80.709	0.85	0.3	2.35	1.0	89.0	motor_selective_stop_signal	-1.0	True	n/a	89.0	True	stim	crit_stop_success	s629	False
83.065	0.85	0.35	2.25	1.0	89.0	motor_selective_stop_signal	89.0	True	0.793	89.0	False	stim	crit_go	s629	False
85.32	0.85	0.35	2.35	1.0	71.0	motor_selective_stop_signal	71.0	True	0.724	89.0	False	stim	noncrit_signal	s629	False
87.676	0.85	0.35	2.25	1.0	71.0	motor_selective_stop_signal	71.0	True	1.154	89.0	False	stim	noncrit_nosignal	s629	False
89.931	0.85	0.35	2.45	1.0	71.0	motor_selective_stop_signal	71.0	True	0.567	89.0	False	stim	noncrit_nosignal	s629	False
92.387	0.85	0.35	2.25	1.0	89.0	motor_selective_stop_signal	89.0	True	0.773	89.0	False	stim	crit_go	s629	False
94.643	0.85	0.35	2.35	1.0	71.0	motor_selective_stop_signal	71.0	True	0.651	89.0	False	stim	noncrit_nosignal	s629	False
96.999	0.85	0.35	2.45	1.0	71.0	motor_selective_stop_signal	71.0	True	0.841	89.0	False	stim	noncrit_signal	s629	False
99.455	0.85	0.35	2.25	1.0	89.0	motor_selective_stop_signal	89.0	True	0.463	89.0	False	stim	crit_stop_failure	s629	False
101.711	0.85	0.3	2.25	1.0	71.0	motor_selective_stop_signal	71.0	True	0.677	89.0	False	stim	noncrit_nosignal	s629	False
103.966	0.85	0.3	2.85	1.0	89.0	motor_selective_stop_signal	89.0	True	0.636	89.0	False	stim	crit_go	s629	False
106.822	0.85	0.3	2.25	0.0	71.0	motor_selective_stop_signal	89.0	True	0.792	89.0	False	stim	noncrit_nosignal	s629	False
109.078	0.85	0.3	3.45	1.0	89.0	motor_selective_stop_signal	89.0	True	0.606	89.0	False	stim	crit_go	s629	False
112.534	0.85	0.3	2.35	1.0	71.0	motor_selective_stop_signal	71.0	True	0.863	89.0	False	stim	noncrit_signal	s629	False
114.889	0.85	0.3	2.35	1.0	71.0	motor_selective_stop_signal	71.0	True	0.456	89.0	False	stim	noncrit_signal	s629	False
117.245	0.85	0.3	2.35	1.0	71.0	motor_selective_stop_signal	71.0	True	0.783	89.0	False	stim	noncrit_nosignal	s629	False
119.602	0.85	0.3	2.45	1.0	89.0	motor_selective_stop_signal	89.0	True	0.766	89.0	False	stim	crit_stop_failure	s629	False
122.058	0.85	0.25	2.55	0.0	71.0	motor_selective_stop_signal	89.0	True	0.861	89.0	False	stim	noncrit_signal	s629	False
135.132	0.85	0.25	2.35	1.0	89.0	motor_selective_stop_signal	89.0	True	0.805	89.0	False	stim	crit_go	s629	False
137.488	0.85	0.25	2.25	1.0	89.0	motor_selective_stop_signal	89.0	True	0.885	89.0	False	stim	crit_stop_failure	s629	False
139.744	0.85	0.2	2.25	1.0	89.0	motor_selective_stop_signal	89.0	True	0.639	89.0	False	stim	crit_go	s629	False
142.0	0.85	0.2	3.05	1.0	89.0	motor_selective_stop_signal	89.0	True	0.748	89.0	False	stim	crit_go	s629	False
145.057	0.85	0.2	2.45	1.0	89.0	motor_selective_stop_signal	89.0	True	0.782	89.0	False	stim	crit_go	s629	False
147.513	0.85	0.2	2.35	0.0	71.0	motor_selective_stop_signal	89.0	True	1.05	89.0	False	stim	noncrit_nosignal	s629	False
149.868	0.85	0.2	2.25	1.0	89.0	motor_selective_stop_signal	89.0	True	1.09	89.0	False	stim	crit_stop_failure	s629	False
152.124	0.85	0.15	3.25	1.0	89.0	motor_selective_stop_signal	-1.0	True	n/a	89.0	True	stim	crit_stop_success	s629	False
155.38	0.85	0.2	2.95	1.0	71.0	motor_selective_stop_signal	71.0	True	0.746	89.0	False	stim	noncrit_nosignal	s629	False
158.336	0.85	0.2	2.55	1.0	89.0	motor_selective_stop_signal	-1.0	True	n/a	89.0	True	stim	crit_stop_success	s629	False
160.892	0.85	0.25	2.35	1.0	89.0	motor_selective_stop_signal	89.0	True	0.595	89.0	False	stim	crit_go	s629	False
163.248	0.85	0.25	2.55	1.0	89.0	motor_selective_stop_signal	-1.0	True	n/a	89.0	True	stim	crit_stop_success	s629	False
165.804	0.85	0.3	2.35	1.0	89.0	motor_selective_stop_signal	89.0	True	0.715	89.0	False	stim	crit_go	s629	False
168.16	0.85	0.3	2.25	1.0	89.0	motor_selective_stop_signal	89.0	True	0.786	89.0	False	stim	crit_go	s629	False
170.415	0.85	0.3	2.45	0.0	71.0	motor_selective_stop_signal	-1.0	True	n/a	89.0	True	stim	noncrit_signal	s629	False
172.87	0.85	0.3	2.35	1.0	71.0	motor_selective_stop_signal	71.0	True	0.676	89.0	False	stim	noncrit_nosignal	s629	False
175.226	0.85	0.3	2.65	1.0	71.0	motor_selective_stop_signal	71.0	True	0.72	89.0	False	stim	noncrit_signal	s629	False
177.882	0.85	0.3	2.25	1.0	71.0	motor_selective_stop_signal	71.0	True	0.625	89.0	False	stim	noncrit_nosignal	s629	False
180.138	0.85	0.3	2.25	1.0	89.0	motor_selective_stop_signal	-1.0	True	n/a	89.0	True	stim	crit_stop_success	s629	False
182.395	0.85	0.35	2.45	1.0	71.0	motor_selective_stop_signal	71.0	True	0.681	89.0	False	stim	noncrit_nosignal	s629	False
184.851	0.85	0.35	2.25	0.0	89.0	motor_selective_stop_signal	71.0	True	0.932	89.0	False	stim	crit_go	s629	False
187.105	0.85	0.35	2.55	1.0	89.0	motor_selective_stop_signal	89.0	True	0.817	89.0	False	stim	crit_stop_failure	s629	False
189.661	0.85	0.3	2.25	1.0	71.0	motor_selective_stop_signal	71.0	True	0.702	89.0	False	stim	noncrit_nosignal	s629	False
191.917	0.85	0.3	2.35	1.0	71.0	motor_selective_stop_signal	71.0	True	0.739	89.0	False	stim	noncrit_signal	s629	False
194.27	0.85	0.3	2.25	1.0	89.0	motor_selective_stop_signal	-1.0	True	n/a	89.0	True	stim	crit_stop_success	s629	False
196.526	0.85	0.35	2.55	1.0	89.0	motor_selective_stop_signal	89.0	True	0.679	89.0	False	stim	crit_stop_failure	s629	False
199.082	0.85	0.3	2.55	1.0	89.0	motor_selective_stop_signal	89.0	True	0.7	89.0	False	stim	crit_go	s629	False
201.638	0.85	0.3	2.35	1.0	71.0	motor_selective_stop_signal	71.0	True	0.686	89.0	False	stim	noncrit_nosignal	s629	False
203.993	0.85	0.3	2.35	1.0	71.0	motor_selective_stop_signal	71.0	True	0.576	89.0	False	stim	noncrit_nosignal	s629	False
206.349	0.85	0.3	2.25	1.0	89.0	motor_selective_stop_signal	89.0	True	0.735	89.0	False	stim	crit_go	s629	False
208.604	0.85	0.3	2.45	1.0	71.0	motor_selective_stop_signal	71.0	True	0.815	89.0	False	stim	noncrit_signal	s629	False
211.06	0.85	0.3	2.25	1.0	71.0	motor_selective_stop_signal	71.0	True	0.684	89.0	False	stim	noncrit_nosignal	s629	False
213.317	0.85	0.3	2.45	1.0	71.0	motor_selective_stop_signal	71.0	True	0.831	89.0	False	stim	noncrit_signal	s629	False
215.773	0.85	0.3	2.65	1.0	89.0	motor_selective_stop_signal	89.0	True	0.857	89.0	False	stim	crit_stop_failure	s629	False
218.428	0.85	0.25	2.45	1.0	71.0	motor_selective_stop_signal	71.0	True	0.712	89.0	False	stim	noncrit_nosignal	s629	False
220.883	0.85	0.25	2.35	1.0	89.0	motor_selective_stop_signal	89.0	True	0.821	89.0	False	stim	crit_go	s629	False
223.239	0.85	0.25	2.25	1.0	71.0	motor_selective_stop_signal	71.0	True	0.758	89.0	False	stim	noncrit_signal	s629	False
225.494	0.85	0.25	2.55	1.0	89.0	motor_selective_stop_signal	89.0	True	0.508	89.0	False	stim	crit_go	s629	False
228.05	0.85	0.25	2.25	1.0	71.0	motor_selective_stop_signal	71.0	True	0.632	89.0	False	stim	noncrit_nosignal	s629	False
230.306	0.85	0.25	2.25	1.0	71.0	motor_selective_stop_signal	71.0	True	0.572	89.0	False	stim	noncrit_nosignal	s629	False
232.561	0.85	0.25	2.35	1.0	89.0	motor_selective_stop_signal	89.0	True	0.79	89.0	False	stim	crit_go	s629	False
234.917	0.85	0.25	2.25	1.0	89.0	motor_selective_stop_signal	89.0	True	0.714	89.0	False	stim	crit_go	s629	False
237.174	0.85	0.25	2.65	0.0	71.0	motor_selective_stop_signal	89.0	True	0.923	89.0	False	stim	noncrit_signal	s629	False
239.829	0.85	0.25	2.35	1.0	71.0	motor_selective_stop_signal	71.0	True	0.743	89.0	False	stim	noncrit_signal	s629	False
242.185	0.85	0.25	2.45	1.0	71.0	motor_selective_stop_signal	71.0	True	0.592	89.0	False	stim	noncrit_nosignal	s629	False
244.641	0.85	0.25	2.35	1.0	71.0	motor_selective_stop_signal	71.0	True	0.576	89.0	False	stim	noncrit_signal	s629	False
246.997	0.85	0.25	2.25	1.0	89.0	motor_selective_stop_signal	89.0	True	0.667	89.0	False	stim	crit_stop_failure	s629	False
249.253	0.85	0.2	2.25	1.0	89.0	motor_selective_stop_signal	89.0	True	0.649	89.0	False	stim	crit_go	s629	False
251.509	0.85	0.2	2.25	1.0	89.0	motor_selective_stop_signal	89.0	True	0.785	89.0	False	stim	crit_stop_failure	s629	False
253.765	0.85	0.15	2.25	1.0	89.0	motor_selective_stop_signal	89.0	True	0.656	89.0	False	stim	crit_go	s629	False
266.538	0.85	0.15	2.35	1.0	89.0	motor_selective_stop_signal	-1.0	True	n/a	89.0	True	stim	crit_stop_success	s629	False
268.894	0.85	0.2	3.35	1.0	89.0	motor_selective_stop_signal	89.0	True	0.715	89.0	False	stim	crit_go	s629	False
272.25	0.85	0.2	2.55	1.0	89.0	motor_selective_stop_signal	89.0	True	0.592	89.0	False	stim	crit_go	s629	False
274.806	0.85	0.2	2.75	1.0	89.0	motor_selective_stop_signal	-1.0	True	n/a	89.0	True	stim	crit_stop_success	s629	False
277.561	0.85	0.25	2.75	1.0	71.0	motor_selective_stop_signal	71.0	True	0.656	89.0	False	stim	noncrit_nosignal	s629	False
280.317	0.85	0.25	2.65	1.0	71.0	motor_selective_stop_signal	71.0	True	0.547	89.0	False	stim	noncrit_nosignal	s629	False
282.972	0.85	0.25	2.45	1.0	89.0	motor_selective_stop_signal	89.0	True	0.801	89.0	False	stim	crit_stop_failure	s629	False
285.426	0.85	0.2	2.25	1.0	71.0	motor_selective_stop_signal	71.0	True	0.625	89.0	False	stim	noncrit_nosignal	s629	False
287.682	0.85	0.2	2.35	1.0	71.0	motor_selective_stop_signal	71.0	True	0.639	89.0	False	stim	noncrit_nosignal	s629	False
290.037	0.85	0.2	2.45	1.0	89.0	motor_selective_stop_signal	89.0	True	1.033	89.0	False	stim	crit_go	s629	False
292.493	0.85	0.2	3.05	1.0	71.0	motor_selective_stop_signal	71.0	True	0.678	89.0	False	stim	noncrit_nosignal	s629	False
295.548	0.85	0.2	2.35	1.0	89.0	motor_selective_stop_signal	89.0	True	0.715	89.0	False	stim	crit_go	s629	False
297.904	0.85	0.2	2.25	1.0	71.0	motor_selective_stop_signal	71.0	True	0.87	89.0	False	stim	noncrit_signal	s629	False
300.16	0.85	0.2	2.35	1.0	71.0	motor_selective_stop_signal	71.0	True	0.569	89.0	False	stim	noncrit_nosignal	s629	False
302.516	0.85	0.2	2.35	0.0	71.0	motor_selective_stop_signal	89.0	True	1.01	89.0	False	stim	noncrit_nosignal	s629	False
304.873	0.85	0.2	2.35	1.0	71.0	motor_selective_stop_signal	71.0	True	0.974	89.0	False	stim	noncrit_nosignal	s629	False
307.228	0.85	0.2	2.35	1.0	71.0	motor_selective_stop_signal	71.0	True	0.817	89.0	False	stim	noncrit_signal	s629	False
309.584	0.85	0.2	2.35	1.0	71.0	motor_selective_stop_signal	71.0	True	0.558	89.0	False	stim	noncrit_nosignal	s629	False
311.936	0.85	0.2	2.25	1.0	71.0	motor_selective_stop_signal	71.0	True	0.611	89.0	False	stim	noncrit_nosignal	s629	False
314.192	0.85	0.2	2.35	1.0	89.0	motor_selective_stop_signal	89.0	True	0.691	89.0	False	stim	crit_stop_failure	s629	False
316.549	0.85	0.15	2.45	1.0	71.0	motor_selective_stop_signal	71.0	True	0.568	89.0	False	stim	noncrit_nosignal	s629	False
319.004	0.85	0.15	2.35	1.0	71.0	motor_selective_stop_signal	71.0	True	0.682	89.0	False	stim	noncrit_nosignal	s629	False
321.359	0.85	0.15	2.85	1.0	71.0	motor_selective_stop_signal	71.0	True	0.821	89.0	False	stim	noncrit_nosignal	s629	False
324.216	0.85	0.15	2.55	1.0	71.0	motor_selective_stop_signal	71.0	True	0.702	89.0	False	stim	noncrit_nosignal	s629	False
326.771	0.85	0.15	2.75	1.0	71.0	motor_selective_stop_signal	71.0	True	0.581	89.0	False	stim	noncrit_nosignal	s629	False
329.527	0.85	0.15	2.25	1.0	71.0	motor_selective_stop_signal	71.0	True	0.901	89.0	False	stim	noncrit_signal	s629	False
331.783	0.85	0.15	2.25	1.0	89.0	motor_selective_stop_signal	89.0	True	0.707	89.0	False	stim	crit_go	s629	False
334.04	0.85	0.15	2.85	0.0	89.0	motor_selective_stop_signal	71.0	True	1.048	89.0	False	stim	crit_stop_failure	s629	False
336.895	0.85	0.1	2.35	1.0	89.0	motor_selective_stop_signal	89.0	True	0.858	89.0	False	stim	crit_go	s629	False
339.251	0.85	0.1	2.25	1.0	89.0	motor_selective_stop_signal	89.0	True	0.599	89.0	False	stim	crit_go	s629	False
341.507	0.85	0.1	2.25	1.0	89.0	motor_selective_stop_signal	-1.0	True	n/a	89.0	True	stim	crit_stop_success	s629	False
343.763	0.85	0.15	2.25	1.0	71.0	motor_selective_stop_signal	71.0	True	0.471	89.0	False	stim	noncrit_nosignal	s629	False
346.019	0.85	0.15	2.35	1.0	89.0	motor_selective_stop_signal	89.0	True	0.721	89.0	False	stim	crit_go	s629	False
348.375	0.85	0.15	2.65	1.0	89.0	motor_selective_stop_signal	89.0	True	0.938	89.0	False	stim	crit_go	s629	False
351.03	0.85	0.15	2.75	1.0	89.0	motor_selective_stop_signal	-1.0	True	n/a	89.0	True	stim	crit_stop_success	s629	False
353.786	0.85	0.2	2.25	1.0	89.0	motor_selective_stop_signal	89.0	True	0.78	89.0	False	stim	crit_go	s629	False
356.042	0.85	0.2	2.75	1.0	89.0	motor_selective_stop_signal	-1.0	True	n/a	89.0	True	stim	crit_stop_success	s629	False
358.797	0.85	0.25	2.25	1.0	71.0	motor_selective_stop_signal	71.0	True	0.856	89.0	False	stim	noncrit_signal	s629	False
361.053	0.85	0.25	2.35	1.0	71.0	motor_selective_stop_signal	71.0	True	0.549	89.0	False	stim	noncrit_nosignal	s629	False
363.408	0.85	0.25	2.35	1.0	71.0	motor_selective_stop_signal	71.0	True	0.776	89.0	False	stim	noncrit_nosignal	s629	False
365.763	0.85	0.25	2.55	1.0	71.0	motor_selective_stop_signal	71.0	True	0.688	89.0	False	stim	noncrit_nosignal	s629	False
368.319	0.85	0.25	2.25	1.0	89.0	motor_selective_stop_signal	89.0	True	0.683	89.0	False	stim	crit_go	s629	False
370.575	0.85	0.25	2.25	1.0	71.0	motor_selective_stop_signal	71.0	True	0.755	89.0	False	stim	noncrit_signal	s629	False
372.831	0.85	0.25	2.25	1.0	71.0	motor_selective_stop_signal	71.0	True	0.677	89.0	False	stim	noncrit_nosignal	s629	False
375.085	0.85	0.25	2.35	1.0	89.0	motor_selective_stop_signal	89.0	True	0.705	89.0	False	stim	crit_go	s629	False
377.441	0.85	0.25	2.65	1.0	89.0	motor_selective_stop_signal	-1.0	True	n/a	89.0	True	stim	crit_stop_success	s629	False
380.096	0.85	0.3	2.35	1.0	89.0	motor_selective_stop_signal	89.0	True	0.783	89.0	False	stim	crit_go	s629	False
382.452	0.85	0.3	2.25	1.0	71.0	motor_selective_stop_signal	71.0	True	0.606	89.0	False	stim	noncrit_signal	s629	False
384.708	0.85	0.3	2.35	1.0	89.0	motor_selective_stop_signal	89.0	True	0.928	89.0	False	stim	crit_go	s629	False
387.063	0.85	0.3	2.35	1.0	89.0	motor_selective_stop_signal	-1.0	True	n/a	89.0	True	stim	crit_stop_success	s629	False
399.937	0.85	0.35	2.85	1.0	89.0	motor_selective_stop_signal	89.0	True	0.74	89.0	False	stim	crit_go	s629	False
402.792	0.85	0.35	2.45	1.0	71.0	motor_selective_stop_signal	71.0	True	0.893	89.0	False	stim	noncrit_nosignal	s629	False
405.247	0.85	0.35	2.35	1.0	89.0	motor_selective_stop_signal	89.0	True	0.662	89.0	False	stim	crit_go	s629	False
407.603	0.85	0.35	2.65	1.0	89.0	motor_selective_stop_signal	89.0	True	0.645	89.0	False	stim	crit_go	s629	False
410.259	0.85	0.35	2.25	1.0	89.0	motor_selective_stop_signal	89.0	True	0.803	89.0	False	stim	crit_go	s629	False
412.515	0.85	0.35	2.25	1.0	71.0	motor_selective_stop_signal	71.0	True	0.925	89.0	False	stim	noncrit_signal	s629	False
414.771	0.85	0.35	2.25	1.0	89.0	motor_selective_stop_signal	89.0	True	0.683	89.0	False	stim	crit_go	s629	False
417.027	0.85	0.35	2.45	1.0	89.0	motor_selective_stop_signal	89.0	True	0.595	89.0	False	stim	crit_go	s629	False
419.482	0.85	0.35	2.35	1.0	89.0	motor_selective_stop_signal	89.0	True	0.622	89.0	False	stim	crit_go	s629	False
421.838	0.85	0.35	2.25	1.0	89.0	motor_selective_stop_signal	89.0	True	0.607	89.0	False	stim	crit_stop_failure	s629	False
424.094	0.85	0.3	2.35	1.0	89.0	motor_selective_stop_signal	-1.0	True	n/a	89.0	True	stim	crit_stop_success	s629	False
426.448	0.85	0.35	2.45	1.0	71.0	motor_selective_stop_signal	71.0	True	0.499	89.0	False	stim	noncrit_signal	s629	False
428.904	0.85	0.35	2.35	1.0	89.0	motor_selective_stop_signal	89.0	True	0.735	89.0	False	stim	crit_go	s629	False
431.26	0.85	0.35	2.25	1.0	71.0	motor_selective_stop_signal	71.0	True	0.653	89.0	False	stim	noncrit_nosignal	s629	False
433.516	0.85	0.35	2.25	1.0	71.0	motor_selective_stop_signal	71.0	True	0.571	89.0	False	stim	noncrit_nosignal	s629	False
435.772	0.85	0.35	2.35	1.0	71.0	motor_selective_stop_signal	71.0	True	0.588	89.0	False	stim	noncrit_signal	s629	False
438.127	0.85	0.35	2.35	1.0	89.0	motor_selective_stop_signal	89.0	True	0.614	89.0	False	stim	crit_stop_failure	s629	False
440.483	0.85	0.3	2.35	1.0	71.0	motor_selective_stop_signal	71.0	True	0.542	89.0	False	stim	noncrit_nosignal	s629	False
442.839	0.85	0.3	2.95	1.0	71.0	motor_selective_stop_signal	71.0	True	0.555	89.0	False	stim	noncrit_nosignal	s629	False
445.795	0.85	0.3	2.25	1.0	71.0	motor_selective_stop_signal	71.0	True	0.707	89.0	False	stim	noncrit_nosignal	s629	False
448.05	0.85	0.3	2.35	0.0	71.0	motor_selective_stop_signal	89.0	True	1.122	89.0	False	stim	noncrit_nosignal	s629	False
450.406	0.85	0.3	2.25	1.0	89.0	motor_selective_stop_signal	89.0	True	0.669	89.0	False	stim	crit_go	s629	False
452.661	0.85	0.3	2.45	1.0	71.0	motor_selective_stop_signal	71.0	True	0.654	89.0	False	stim	noncrit_signal	s629	False
455.117	0.85	0.3	2.35	1.0	71.0	motor_selective_stop_signal	71.0	True	0.6	89.0	False	stim	noncrit_signal	s629	False
457.473	0.85	0.3	2.55	1.0	71.0	motor_selective_stop_signal	71.0	True	0.559	89.0	False	stim	noncrit_signal	s629	False
460.03	0.85	0.3	2.55	1.0	71.0	motor_selective_stop_signal	71.0	True	0.656	89.0	False	stim	noncrit_nosignal	s629	False
462.586	0.85	0.3	2.25	1.0	71.0	motor_selective_stop_signal	71.0	True	0.54	89.0	False	stim	noncrit_nosignal	s629	False
464.841	0.85	0.3	2.25	1.0	89.0	motor_selective_stop_signal	89.0	True	0.74	89.0	False	stim	crit_go	s629	False
467.097	0.85	0.3	2.75	1.0	89.0	motor_selective_stop_signal	89.0	True	0.533	89.0	False	stim	crit_stop_failure	s629	False
469.853	0.85	0.25	2.35	1.0	89.0	motor_selective_stop_signal	-1.0	True	n/a	89.0	True	stim	crit_stop_success	s629	False
472.209	0.85	0.3	2.25	1.0	89.0	motor_selective_stop_signal	-1.0	True	n/a	89.0	True	stim	crit_stop_success	s629	False
474.465	0.85	0.35	2.45	1.0	89.0	motor_selective_stop_signal	89.0	True	0.755	89.0	False	stim	crit_go	s629	False
476.921	0.85	0.35	2.25	1.0	89.0	motor_selective_stop_signal	89.0	True	0.786	89.0	False	stim	crit_go	s629	False
479.177	0.85	0.35	2.35	1.0	71.0	motor_selective_stop_signal	71.0	True	0.857	89.0	False	stim	noncrit_nosignal	s629	False
481.533	0.85	0.35	2.25	1.0	89.0	motor_selective_stop_signal	89.0	True	0.779	89.0	False	stim	crit_go	s629	False
483.789	0.85	0.35	2.25	1.0	89.0	motor_selective_stop_signal	-1.0	True	n/a	89.0	True	stim	crit_stop_success	s629	False
486.045	0.85	0.4	2.25	1.0	89.0	motor_selective_stop_signal	-1.0	True	n/a	89.0	True	stim	crit_stop_success	s629	False
488.3	0.85	0.45	2.25	1.0	71.0	motor_selective_stop_signal	71.0	True	0.479	89.0	False	stim	noncrit_nosignal	s629	False
490.556	0.85	0.45	2.25	1.0	71.0	motor_selective_stop_signal	71.0	True	0.728	89.0	False	stim	noncrit_nosignal	s629	False
492.812	0.85	0.45	2.35	1.0	71.0	motor_selective_stop_signal	71.0	True	0.591	89.0	False	stim	noncrit_signal	s629	False
495.168	0.85	0.45	2.55	1.0	89.0	motor_selective_stop_signal	-1.0	True	n/a	89.0	True	stim	crit_stop_success	s629	False
497.723	0.85	0.5	2.95	1.0	71.0	motor_selective_stop_signal	71.0	True	0.561	89.0	False	stim	noncrit_nosignal	s629	False
500.679	0.85	0.5	2.25	1.0	89.0	motor_selective_stop_signal	-1.0	True	n/a	89.0	True	stim	crit_stop_success	s629	False
502.935	0.85	0.55	2.35	1.0	71.0	motor_selective_stop_signal	71.0	True	0.753	89.0	False	stim	noncrit_nosignal	s629	False
505.291	0.85	0.55	2.55	1.0	71.0	motor_selective_stop_signal	71.0	True	0.616	89.0	False	stim	noncrit_nosignal	s629	False
507.847	0.85	0.55	2.25	1.0	71.0	motor_selective_stop_signal	71.0	True	0.55	89.0	False	stim	noncrit_signal	s629	False
510.102	0.85	0.55	2.35	1.0	71.0	motor_selective_stop_signal	71.0	True	0.571	89.0	False	stim	noncrit_signal	s629	False
512.457	0.85	0.55	2.55	1.0	71.0	motor_selective_stop_signal	71.0	True	0.513	89.0	False	stim	noncrit_signal	s629	False
515.012	0.85	0.55	2.45	1.0	71.0	motor_selective_stop_signal	71.0	True	0.622	89.0	False	stim	noncrit_signal	s629	False
517.467	0.85	0.55	2.35	1.0	71.0	motor_selective_stop_signal	71.0	True	0.553	89.0	False	stim	noncrit_nosignal	s629	False
530.342	0.85	0.55	2.65	1.0	71.0	motor_selective_stop_signal	71.0	True	0.874	89.0	False	stim	noncrit_nosignal	s629	False
532.999	0.85	0.55	2.55	1.0	71.0	motor_selective_stop_signal	71.0	True	0.694	89.0	False	stim	noncrit_nosignal	s629	False
535.554	0.85	0.55	2.75	0.0	89.0	motor_selective_stop_signal	71.0	True	0.646	89.0	False	stim	crit_stop_failure	s629	False
538.311	0.85	0.5	2.55	1.0	89.0	motor_selective_stop_signal	89.0	True	0.796	89.0	False	stim	crit_stop_failure	s629	False
540.867	0.85	0.45	2.45	1.0	71.0	motor_selective_stop_signal	71.0	True	0.681	89.0	False	stim	noncrit_signal	s629	False
543.319	0.85	0.45	2.75	1.0	89.0	motor_selective_stop_signal	89.0	True	0.686	89.0	False	stim	crit_go	s629	False
546.076	0.85	0.45	2.55	1.0	71.0	motor_selective_stop_signal	71.0	True	0.895	89.0	False	stim	noncrit_nosignal	s629	False
548.631	0.85	0.45	2.35	1.0	89.0	motor_selective_stop_signal	89.0	True	0.655	89.0	False	stim	crit_stop_failure	s629	False
550.987	0.85	0.4	2.25	0.0	71.0	motor_selective_stop_signal	89.0	True	0.734	89.0	False	stim	noncrit_nosignal	s629	False
553.243	0.85	0.4	2.65	1.0	89.0	motor_selective_stop_signal	89.0	True	0.806	89.0	False	stim	crit_go	s629	False
555.899	0.85	0.4	2.25	1.0	89.0	motor_selective_stop_signal	89.0	True	0.583	89.0	False	stim	crit_stop_failure	s629	False
558.156	0.85	0.35	2.35	1.0	89.0	motor_selective_stop_signal	89.0	True	0.659	89.0	False	stim	crit_go	s629	False
560.512	0.85	0.35	2.25	0.0	89.0	motor_selective_stop_signal	71.0	True	0.909	89.0	False	stim	crit_go	s629	False
562.766	0.85	0.35	2.35	1.0	71.0	motor_selective_stop_signal	71.0	True	0.641	89.0	False	stim	noncrit_nosignal	s629	False
565.121	0.85	0.35	2.35	1.0	89.0	motor_selective_stop_signal	89.0	True	0.69	89.0	False	stim	crit_go	s629	False
567.477	0.85	0.35	2.25	1.0	89.0	motor_selective_stop_signal	89.0	True	0.732	89.0	False	stim	crit_go	s629	False
569.732	0.85	0.35	2.85	1.0	71.0	motor_selective_stop_signal	71.0	True	0.755	89.0	False	stim	noncrit_signal	s629	False
572.588	0.85	0.35	2.35	1.0	71.0	motor_selective_stop_signal	71.0	True	0.64	89.0	False	stim	noncrit_nosignal	s629	False
574.944	0.85	0.35	2.25	0.0	89.0	motor_selective_stop_signal	71.0	True	0.812	89.0	False	stim	crit_go	s629	False
577.2	0.85	0.35	2.35	1.0	71.0	motor_selective_stop_signal	71.0	True	0.609	89.0	False	stim	noncrit_nosignal	s629	False
579.554	0.85	0.35	2.45	1.0	71.0	motor_selective_stop_signal	71.0	True	0.789	89.0	False	stim	noncrit_nosignal	s629	False
582.011	0.85	0.35	2.25	1.0	89.0	motor_selective_stop_signal	-1.0	True	n/a	89.0	True	stim	crit_stop_success	s629	False
584.266	0.85	0.4	2.25	1.0	71.0	motor_selective_stop_signal	71.0	True	1.257	89.0	False	stim	noncrit_signal	s629	False
586.522	0.85	0.4	2.75	1.0	89.0	motor_selective_stop_signal	89.0	True	0.702	89.0	False	stim	crit_go	s629	False
589.274	0.85	0.4	2.35	1.0	71.0	motor_selective_stop_signal	71.0	True	0.452	89.0	False	stim	noncrit_signal	s629	False
591.63	0.85	0.4	2.75	1.0	71.0	motor_selective_stop_signal	71.0	True	0.595	89.0	False	stim	noncrit_nosignal	s629	False
594.386	0.85	0.4	2.45	1.0	89.0	motor_selective_stop_signal	89.0	True	0.74	89.0	False	stim	crit_go	s629	False
596.839	0.85	0.4	2.25	1.0	89.0	motor_selective_stop_signal	89.0	True	0.661	89.0	False	stim	crit_go	s629	False
599.094	0.85	0.4	2.35	1.0	89.0	motor_selective_stop_signal	-1.0	True	n/a	89.0	True	stim	crit_stop_success	s629	False
601.45	0.85	0.45	2.65	1.0	89.0	motor_selective_stop_signal	89.0	True	0.673	89.0	False	stim	crit_go	s629	False
604.105	0.85	0.45	2.45	0.0	89.0	motor_selective_stop_signal	71.0	True	0.881	89.0	False	stim	crit_stop_failure	s629	False
606.561	0.85	0.4	2.25	0.0	89.0	motor_selective_stop_signal	71.0	True	0.719	89.0	False	stim	crit_go	s629	False
608.817	0.85	0.4	2.35	1.0	71.0	motor_selective_stop_signal	71.0	True	0.594	89.0	False	stim	noncrit_signal	s629	False
611.173	0.85	0.4	2.95	1.0	71.0	motor_selective_stop_signal	71.0	True	0.61	89.0	False	stim	noncrit_signal	s629	False
614.129	0.85	0.4	2.25	1.0	71.0	motor_selective_stop_signal	71.0	True	0.754	89.0	False	stim	noncrit_nosignal	s629	False
616.385	0.85	0.4	2.95	1.0	71.0	motor_selective_stop_signal	71.0	True	0.8	89.0	False	stim	noncrit_nosignal	s629	False
619.34	0.85	0.4	2.45	1.0	71.0	motor_selective_stop_signal	71.0	True	0.61	89.0	False	stim	noncrit_signal	s629	False
621.796	0.85	0.4	2.25	0.0	89.0	motor_selective_stop_signal	71.0	True	0.713	89.0	False	stim	crit_stop_failure	s629	False
624.052	0.85	0.35	2.35	1.0	71.0	motor_selective_stop_signal	71.0	True	0.658	89.0	False	stim	noncrit_nosignal	s629	False
626.406	0.85	0.35	2.45	1.0	71.0	motor_selective_stop_signal	71.0	True	0.557	89.0	False	stim	noncrit_nosignal	s629	False
628.863	0.85	0.35	2.25	0.0	89.0	motor_selective_stop_signal	71.0	True	0.577	89.0	False	stim	crit_stop_failure	s629	False
631.118	0.85	0.3	2.45	1.0	71.0	motor_selective_stop_signal	71.0	True	0.663	89.0	False	stim	noncrit_signal	s629	False
633.573	0.85	0.3	2.75	1.0	89.0	motor_selective_stop_signal	89.0	True	0.715	89.0	False	stim	crit_go	s629	False
636.329	0.85	0.3	2.25	1.0	71.0	motor_selective_stop_signal	71.0	True	0.643	89.0	False	stim	noncrit_signal	s629	False
638.585	0.85	0.3	2.35	0.0	89.0	motor_selective_stop_signal	71.0	True	0.675	89.0	False	stim	crit_go	s629	False
640.94	0.85	0.3	2.45	1.0	71.0	motor_selective_stop_signal	71.0	True	0.505	89.0	False	stim	noncrit_signal	s629	False
643.396	0.85	0.3	2.35	1.0	71.0	motor_selective_stop_signal	71.0	True	0.443	89.0	False	stim	noncrit_nosignal	s629	False
645.752	0.85	0.3	2.25	1.0	71.0	motor_selective_stop_signal	71.0	True	1.086	89.0	False	stim	noncrit_signal	s629	False
648.008	0.85	0.3	2.55	1.0	89.0	motor_selective_stop_signal	89.0	True	0.652	89.0	False	stim	crit_go	s629	False
650.563	0.85	0.3	2.45	1.0	89.0	motor_selective_stop_signal	89.0	True	0.533	89.0	False	stim	crit_go	s629	False
