onset	duration	movement_onset	EV	action	block_duration	experiment_exp_id	gain_amount	gain_probability	key_press	loss_amount	loss_probability	num_cards	num_click_in_round	num_loss_cards	risk	response_time	total_cards	trial_id	trial_type	worker_id	junk	feedback
3.005	6.068	9.073	1.6245687399801323	draw_card	6.068	columbia_card_task_fmri	12.0	0.8333333333333334	89.0	-70.0	0.1666666666666666	6.0	1.0	1.0	-2.2496525323561585	6.068	n/a	stim	poldrack-single-stim	s631	False	1
9.075	0.411	9.486	-1.1087645933532002	draw_card	0.411	columbia_card_task_fmri	12.0	0.8	89.0	-70.0	0.2	6.0	2.0	1.0	-0.0212566043278741	0.411	n/a	stim	poldrack-single-stim	s631	False	1
9.488	1.051	10.539	-5.208764593353202	draw_card	1.051	columbia_card_task_fmri	12.0	0.75	89.0	-70.0	0.25	6.0	3.0	1.0	2.6732831796615457	1.051	n/a	stim	poldrack-single-stim	s631	False	1
10.541	0.734	11.275	-12.042097926686534	draw_card	0.734	columbia_card_task_fmri	12.0	0.6666666666666667	89.0	-70.0	0.3333333333333333	6.0	4.0	1.0	5.8090627870425	0.734	n/a	stim	poldrack-single-stim	s631	False	1
11.277	0.733	12.01	-25.7087645933532	end_round	0.733	columbia_card_task_fmri	12.0	0.5	71.0	-70.0	0.5	6.0	5.0	1.0	8.145919741735888	0.733	4.0	stim	poldrack-single-stim	s631	False	1
12.762	1.5	12.011	n/a	-1.0	2.454	columbia_card_task_fmri	n/a	n/a	-1.0	n/a	n/a	n/a	n/a	n/a	n/a	n/a	n/a	ITI	poldrack-single-stim	s631	False	0
14.467	4.365	18.832	2.457902073313466	draw_card	4.365	columbia_card_task_fmri	14.0	0.8333333333333334	89.0	-75.0	0.1666666666666666	6.0	1.0	1.0	0.3452648893006369	4.365	1.0	stim	poldrack-single-stim	s631	False	0
19.586	1.5	18.835	n/a	-1.0	2.454	columbia_card_task_fmri	n/a	n/a	-1.0	n/a	n/a	n/a	n/a	n/a	n/a	n/a	n/a	ITI	poldrack-single-stim	s631	False	0
21.292	2.977	24.269	4.124568739980132	draw_card	2.977	columbia_card_task_fmri	15.0	0.8333333333333334	89.0	-70.0	0.1666666666666666	6.0	1.0	1.0	-1.1378217314431147	2.977	n/a	stim	poldrack-single-stim	s631	False	1
24.27	0.369	24.639	1.2912354066467984	draw_card	0.369	columbia_card_task_fmri	15.0	0.8	89.0	-70.0	0.2	6.0	2.0	1.0	1.1729575715218274	0.369	2.0	stim	poldrack-single-stim	s631	False	0
25.391	1.5	24.64	n/a	-1.0	2.522	columbia_card_task_fmri	n/a	n/a	-1.0	n/a	n/a	n/a	n/a	n/a	n/a	n/a	n/a	ITI	poldrack-single-stim	s631	False	0
27.165	2.524	29.689	4.957902073313466	draw_card	2.524	columbia_card_task_fmri	17.0	0.8333333333333334	89.0	-75.0	0.1666666666666666	6.0	1.0	1.0	1.458011901719857	2.524	n/a	stim	poldrack-single-stim	s631	False	1
29.69	0.986	30.676	1.8912354066468	draw_card	0.986	columbia_card_task_fmri	17.0	0.8	89.0	-75.0	0.2	6.0	2.0	1.0	3.960915405792136	0.986	2.0	stim	poldrack-single-stim	s631	False	0
31.427	1.5	30.676	n/a	-1.0	2.454	columbia_card_task_fmri	n/a	n/a	-1.0	n/a	n/a	n/a	n/a	n/a	n/a	n/a	n/a	ITI	poldrack-single-stim	s631	False	0
33.133	2.147	35.28	6.291235406646798	draw_card	2.147	columbia_card_task_fmri	24.0	0.75	89.0	-60.0	0.25	8.0	1.0	2.0	3.535699456842444	2.147	1.0	stim	poldrack-single-stim	s631	False	0
36.031	1.5	35.28	n/a	-1.0	2.658	columbia_card_task_fmri	n/a	n/a	-1.0	n/a	n/a	n/a	n/a	n/a	n/a	n/a	n/a	ITI	poldrack-single-stim	s631	False	0
37.94	6.251	44.191	6.291235406646798	draw_card	6.251	columbia_card_task_fmri	29.0	0.75	89.0	-75.0	0.25	8.0	1.0	2.0	12.167461384272372	6.251	n/a	stim	poldrack-single-stim	s631	False	1
44.193	0.634	44.827	2.5769496923610866	draw_card	0.634	columbia_card_task_fmri	29.0	0.7142857142857143	89.0	-75.0	0.2857142857142857	8.0	2.0	2.0	14.111581001872324	0.634	n/a	stim	poldrack-single-stim	s631	False	1
44.828	0.49	45.318	-2.375431260019866	draw_card	0.49	columbia_card_task_fmri	29.0	0.6666666666666667	89.0	-75.0	0.3333333333333333	8.0	3.0	2.0	16.15045165707766	0.49	3.0	stim	poldrack-single-stim	s631	False	0
46.07	1.5	45.319	n/a	-1.0	2.386	columbia_card_task_fmri	n/a	n/a	-1.0	n/a	n/a	n/a	n/a	n/a	n/a	n/a	n/a	ITI	poldrack-single-stim	s631	False	0
47.707	1.545	49.252	2.0690131844245787	draw_card	1.545	columbia_card_task_fmri	17.0	0.7777777777777778	89.0	-65.0	0.2222222222222222	9.0	1.0	2.0	1.2631930936140918	1.545	n/a	stim	poldrack-single-stim	s631	False	1
49.253	2.023	51.276	-0.2087645933532016	draw_card	2.023	columbia_card_task_fmri	17.0	0.75	89.0	-65.0	0.25	9.0	2.0	2.0	2.6732831796615457	2.023	n/a	stim	poldrack-single-stim	s631	False	1
51.277	1.401	52.678	-3.1373360219246287	draw_card	1.401	columbia_card_task_fmri	17.0	0.7142857142857143	89.0	-65.0	0.2857142857142857	9.0	3.0	2.0	4.20377643467593	1.401	n/a	stim	poldrack-single-stim	s631	False	1
52.679	0.628	53.307	-7.042097926686532	draw_card	0.628	columbia_card_task_fmri	17.0	0.6666666666666667	89.0	-65.0	0.3333333333333333	9.0	4.0	2.0	5.8090627870425	0.628	n/a	stim	poldrack-single-stim	s631	False	1
53.309	2.913	56.222	-12.508764593353202	draw_card	2.913	columbia_card_task_fmri	17.0	0.6	89.0	-65.0	0.4	9.0	5.0	2.0	7.320262163931972	2.913	n/a	stim	poldrack-single-stim	s631	False	1
56.223	2.361	58.584	-20.7087645933532	end_round	2.361	columbia_card_task_fmri	17.0	0.5	71.0	-65.0	0.5	9.0	6.0	2.0	8.145919741735888	2.361	5.0	stim	poldrack-single-stim	s631	False	1
59.336	1.5	58.585	n/a	-1.0	2.522	columbia_card_task_fmri	n/a	n/a	-1.0	n/a	n/a	n/a	n/a	n/a	n/a	n/a	n/a	ITI	poldrack-single-stim	s631	False	0
61.11	2.876	63.986	6.391235406646798	draw_card	2.876	columbia_card_task_fmri	14.0	0.9	89.0	-95.0	0.1	10.0	1.0	1.0	-0.1207554265224146	2.876	1.0	stim	poldrack-single-stim	s631	False	0
64.737	1.5	63.986	n/a	-1.0	2.59	columbia_card_task_fmri	n/a	n/a	-1.0	n/a	n/a	n/a	n/a	n/a	n/a	n/a	n/a	ITI	poldrack-single-stim	s631	False	0
66.579	5.446	72.025	2.2912354066467984	draw_card	5.446	columbia_card_task_fmri	15.0	0.8	89.0	-65.0	0.2	10.0	1.0	2.0	-0.817160154523755	5.446	n/a	stim	poldrack-single-stim	s631	False	1
72.027	0.298	72.325	0.5134576288690216	draw_card	0.298	columbia_card_task_fmri	15.0	0.7777777777777778	89.0	-65.0	0.2222222222222222	10.0	2.0	2.0	0.4356572813550627	0.298	n/a	stim	poldrack-single-stim	s631	False	1
72.327	0.235	72.562	-1.7087645933532016	draw_card	0.235	columbia_card_task_fmri	15.0	0.75	89.0	-65.0	0.25	10.0	3.0	2.0	1.8110461759321268	0.235	3.0	stim	poldrack-single-stim	s631	False	0
73.314	1.5	72.563	n/a	-1.0	2.386	columbia_card_task_fmri	n/a	n/a	-1.0	n/a	n/a	n/a	n/a	n/a	n/a	n/a	n/a	ITI	poldrack-single-stim	s631	False	0
74.951	3.426	78.377	3.8912354066468	draw_card	3.426	columbia_card_task_fmri	17.0	0.8	89.0	-65.0	0.2	10.0	1.0	2.0	-0.0212566043278741	3.426	1.0	stim	poldrack-single-stim	s631	False	0
79.129	1.5	78.378	n/a	-1.0	2.59	columbia_card_task_fmri	n/a	n/a	-1.0	n/a	n/a	n/a	n/a	n/a	n/a	n/a	n/a	ITI	poldrack-single-stim	s631	False	0
80.97	4.359	85.329	2.457902073313466	draw_card	4.359	columbia_card_task_fmri	13.0	0.8333333333333334	89.0	-70.0	0.1666666666666666	12.0	1.0	2.0	-1.879091673035184	4.359	n/a	stim	poldrack-single-stim	s631	False	1
85.331	0.384	85.715	1.2003263157377049	draw_card	0.384	columbia_card_task_fmri	13.0	0.8181818181818181	89.0	-70.0	0.1818181818181818	12.0	2.0	2.0	-0.8045740658972136	0.384	n/a	stim	poldrack-single-stim	s631	False	1
85.717	0.582	86.299	-0.3087645933532013	draw_card	0.582	columbia_card_task_fmri	13.0	0.8	89.0	-70.0	0.2	12.0	3.0	2.0	0.3767686533423457	0.582	n/a	stim	poldrack-single-stim	s631	False	1
86.301	0.572	86.873	-2.1532090377976463	draw_card	0.572	columbia_card_task_fmri	13.0	0.7777777777777778	89.0	-70.0	0.2222222222222222	12.0	4.0	2.0	1.6770317795817604	0.572	n/a	stim	poldrack-single-stim	s631	False	1
86.875	0.833	87.708	-4.458764593353202	draw_card	0.833	columbia_card_task_fmri	13.0	0.75	89.0	-70.0	0.25	12.0	5.0	2.0	3.10446971224188	0.833	n/a	stim	poldrack-single-stim	s631	False	1
87.709	0.457	88.166	-7.423050307638915	draw_card	0.457	columbia_card_task_fmri	13.0	0.7142857142857143	89.0	-70.0	0.2857142857142857	12.0	6.0	2.0	4.653779077423188	0.457	n/a	stim	poldrack-single-stim	s631	False	1
88.169	0.572	88.741	-11.375431260019866	draw_card	0.572	columbia_card_task_fmri	13.0	0.6666666666666667	89.0	-70.0	0.3333333333333333	12.0	7.0	2.0	6.278788206585062	0.572	n/a	stim	poldrack-single-stim	s631	False	1
88.743	0.135	88.878	-16.9087645933532	draw_card	0.135	columbia_card_task_fmri	13.0	0.6	89.0	-70.0	0.4	12.0	8.0	2.0	7.808543757558084	0.135	n/a	stim	poldrack-single-stim	s631	False	1
88.88	2.21	91.09	-25.2087645933532	draw_card	2.21	columbia_card_task_fmri	13.0	0.5	89.0	-70.0	0.5	12.0	9.0	2.0	8.64433573055512	2.21	9.0	stim	poldrack-single-stim	s631	False	0
91.842	1.5	91.091	n/a	-1.0	2.318	columbia_card_task_fmri	n/a	n/a	-1.0	n/a	n/a	n/a	n/a	n/a	n/a	n/a	n/a	ITI	poldrack-single-stim	s631	False	0
93.412	0.692	94.104	2.457902073313466	draw_card	0.692	columbia_card_task_fmri	15.0	0.8333333333333334	89.0	-80.0	0.1666666666666666	12.0	1.0	2.0	2.571090610338309	0.692	n/a	stim	poldrack-single-stim	s631	False	1
94.106	1.821	95.927	1.0185081339195232	draw_card	1.821	columbia_card_task_fmri	15.0	0.8181818181818181	89.0	-80.0	0.1818181818181818	12.0	2.0	2.0	3.802538045112918	1.821	n/a	stim	poldrack-single-stim	s631	False	1
95.93	0.955	96.885	-0.7087645933532016	draw_card	0.955	columbia_card_task_fmri	15.0	0.8	89.0	-80.0	0.2	12.0	3.0	2.0	5.156294546954918	0.955	3.0	stim	poldrack-single-stim	s631	False	0
97.637	1.5	96.886	n/a	-1.0	2.25	columbia_card_task_fmri	n/a	n/a	-1.0	n/a	n/a	n/a	n/a	n/a	n/a	n/a	n/a	ITI	poldrack-single-stim	s631	False	0
99.139	1.555	100.694	1.4912354066467994	draw_card	1.555	columbia_card_task_fmri	14.0	0.8	89.0	-65.0	0.2	15.0	1.0	3.0	-1.2150347653796167	1.555	n/a	stim	poldrack-single-stim	s631	False	1
100.696	0.671	101.367	0.3626639780753713	draw_card	0.671	columbia_card_task_fmri	14.0	0.7857142857142857	89.0	-65.0	0.2142857142857142	15.0	2.0	3.0	-0.4035676889615729	0.671	n/a	stim	poldrack-single-stim	s631	False	1
101.369	0.541	101.91	-0.9395338241224334	draw_card	0.541	columbia_card_task_fmri	14.0	0.7692307692307692	89.0	-65.0	0.2307692307692307	15.0	3.0	3.0	0.4610351452873615	0.541	n/a	stim	poldrack-single-stim	s631	False	1
101.913	0.679	102.592	-2.4587645933532016	draw_card	0.679	columbia_card_task_fmri	14.0	0.75	89.0	-65.0	0.25	15.0	4.0	3.0	1.3799991185442408	0.679	n/a	stim	poldrack-single-stim	s631	False	1
102.594	0.612	103.206	-4.254219138807747	draw_card	0.612	columbia_card_task_fmri	14.0	0.7272727272727273	89.0	-65.0	0.2727272727272727	15.0	5.0	3.0	2.3512148608091508	0.612	n/a	stim	poldrack-single-stim	s631	False	1
103.207	0.731	103.938	-6.408764593353203	draw_card	0.731	columbia_card_task_fmri	14.0	0.7	89.0	-65.0	0.3	15.0	6.0	3.0	3.365678372604833	0.731	n/a	stim	poldrack-single-stim	s631	False	1
103.94	4.184	108.124	-9.042097926686532	draw_card	4.184	columbia_card_task_fmri	14.0	0.6666666666666667	89.0	-65.0	0.3333333333333333	15.0	7.0	3.0	4.400140139909837	4.184	n/a	stim	poldrack-single-stim	s631	False	1
108.127	5.608	113.735	-12.333764593353202	draw_card	5.608	columbia_card_task_fmri	14.0	0.625	89.0	-65.0	0.375	15.0	8.0	3.0	5.401094494478798	5.608	n/a	stim	poldrack-single-stim	s631	False	1
113.737	6.371	120.108	-16.565907450496056	end_round	6.371	columbia_card_task_fmri	14.0	0.5714285714285714	71.0	-65.0	0.4285714285714285	15.0	9.0	3.0	6.247185765287739	6.371	8.0	stim	poldrack-single-stim	s631	False	1
120.86	1.5	120.109	n/a	-1.0	2.454	columbia_card_task_fmri	n/a	n/a	-1.0	n/a	n/a	n/a	n/a	n/a	n/a	n/a	n/a	ITI	poldrack-single-stim	s631	False	0
122.567	3.277	125.844	1.4162354066467984	draw_card	3.277	columbia_card_task_fmri	1.0	0.9375	89.0	-45.0	0.0625	16.0	1.0	1.0	-21.37491318820317	3.277	n/a	stim	poldrack-single-stim	s631	False	1
125.846	0.326	126.172	1.224568739980132	draw_card	0.326	columbia_card_task_fmri	1.0	0.9333333333333332	89.0	-45.0	0.0666666666666666	16.0	2.0	1.0	-21.0488644678459	0.326	n/a	stim	poldrack-single-stim	s631	False	1
126.174	0.396	126.57	1.0055211209325128	draw_card	0.396	columbia_card_task_fmri	1.0	0.9285714285714286	89.0	-45.0	0.0714285714285714	16.0	3.0	1.0	-20.69047464142461	0.396	n/a	stim	poldrack-single-stim	s631	False	1
126.573	0.346	126.919	0.75277386818526	draw_card	0.346	columbia_card_task_fmri	1.0	0.9230769230769232	89.0	-45.0	0.0769230769230769	16.0	4.0	1.0	-20.29420931700399	0.346	n/a	stim	poldrack-single-stim	s631	False	1
126.921	0.338	127.259	0.4579020733134649	draw_card	0.338	columbia_card_task_fmri	1.0	0.9166666666666666	89.0	-45.0	0.0833333333333333	16.0	5.0	1.0	-19.85314247754177	0.338	n/a	stim	poldrack-single-stim	s631	False	1
127.261	0.339	127.6	0.1094172248286167	draw_card	0.339	columbia_card_task_fmri	1.0	0.9090909090909092	89.0	-45.0	0.0909090909090909	16.0	6.0	1.0	-19.358486579151297	0.339	n/a	stim	poldrack-single-stim	s631	False	1
127.603	0.344	127.947	-0.3087645933532017	draw_card	0.344	columbia_card_task_fmri	1.0	0.9	89.0	-45.0	0.1	16.0	7.0	1.0	-18.79892404236625	0.344	7.0	stim	poldrack-single-stim	s631	False	0
128.7	1.5	127.949	n/a	-1.0	3.27	columbia_card_task_fmri	n/a	n/a	-1.0	n/a	n/a	n/a	n/a	n/a	n/a	n/a	n/a	ITI	poldrack-single-stim	s631	False	0
131.222	2.026	133.248	2.3537354066467984	draw_card	2.026	columbia_card_task_fmri	15.0	0.8125	89.0	-70.0	0.1875	16.0	1.0	3.0	0.3534349756638519	2.026	n/a	stim	poldrack-single-stim	s631	False	1
133.25	0.391	133.641	1.2912354066467984	draw_card	0.391	columbia_card_task_fmri	15.0	0.8	89.0	-70.0	0.2	16.0	2.0	3.0	1.1729575715218274	0.391	n/a	stim	poldrack-single-stim	s631	False	1
133.644	0.375	134.019	0.076949692361083	draw_card	0.375	columbia_card_task_fmri	15.0	0.7857142857142857	89.0	-70.0	0.2142857142857142	16.0	3.0	3.0	2.046677874327869	0.375	n/a	stim	poldrack-single-stim	s631	False	1
134.022	0.382	134.404	-1.3241492087378184	draw_card	0.382	columbia_card_task_fmri	15.0	0.7692307692307692	89.0	-70.0	0.2307692307692307	16.0	4.0	3.0	2.977577057277884	0.382	n/a	stim	poldrack-single-stim	s631	False	1
134.407	0.82	135.227	-2.9587645933532016	draw_card	0.82	columbia_card_task_fmri	15.0	0.75	89.0	-70.0	0.25	16.0	5.0	3.0	3.966970900649258	0.82	5.0	stim	poldrack-single-stim	s631	False	0
135.98	1.5	135.229	n/a	-1.0	2.25	columbia_card_task_fmri	n/a	n/a	-1.0	n/a	n/a	n/a	n/a	n/a	n/a	n/a	n/a	ITI	poldrack-single-stim	s631	False	0
137.482	3.368	140.85	9.291235406646798	draw_card	3.368	columbia_card_task_fmri	30.0	0.7	89.0	-50.0	0.3	10.0	1.0	3.0	3.822077228463499	3.368	1.0	stim	poldrack-single-stim	s631	False	0
141.603	1.5	140.852	n/a	-1.0	2.25	columbia_card_task_fmri	n/a	n/a	-1.0	n/a	n/a	n/a	n/a	n/a	n/a	n/a	n/a	ITI	poldrack-single-stim	s631	False	0
143.106	5.283	148.389	8.691235406646799	draw_card	5.283	columbia_card_task_fmri	17.0	0.8666666666666667	89.0	-70.0	0.1333333333333333	15.0	1.0	2.0	-3.2290830719511163	5.283	1.0	stim	poldrack-single-stim	s631	False	0
149.141	1.5	148.39	n/a	-1.0	2.318	columbia_card_task_fmri	n/a	n/a	-1.0	n/a	n/a	n/a	n/a	n/a	n/a	n/a	n/a	ITI	poldrack-single-stim	s631	False	0
150.712	3.733	154.445	3.9162354066467984	draw_card	3.733	columbia_card_task_fmri	7.0	0.9375	89.0	-95.0	0.0625	16.0	1.0	1.0	-8.077303232703542	3.733	n/a	stim	poldrack-single-stim	s631	False	1
154.448	0.355	154.803	3.4912354066467985	draw_card	0.355	columbia_card_task_fmri	7.0	0.9333333333333332	89.0	-95.0	0.0666666666666666	16.0	2.0	1.0	-7.330711136350121	0.355	n/a	stim	poldrack-single-stim	s631	False	1
154.805	0.308	155.113	3.005521120932513	draw_card	0.308	columbia_card_task_fmri	7.0	0.9285714285714286	89.0	-95.0	0.0714285714285714	16.0	3.0	1.0	-6.511576063505906	0.308	n/a	stim	poldrack-single-stim	s631	False	1
155.115	0.406	155.521	2.445081560492952	draw_card	0.406	columbia_card_task_fmri	7.0	0.9230769230769232	89.0	-95.0	0.0769230769230769	16.0	4.0	1.0	-5.607550128623764	0.406	n/a	stim	poldrack-single-stim	s631	False	1
155.524	0.4	155.924	1.7912354066467984	draw_card	0.4	columbia_card_task_fmri	7.0	0.9166666666666666	89.0	-95.0	0.0833333333333333	16.0	5.0	1.0	-4.603187974058727	0.4	5.0	stim	poldrack-single-stim	s631	False	0
156.676	1.5	155.925	n/a	-1.0	2.726	columbia_card_task_fmri	n/a	n/a	-1.0	n/a	n/a	n/a	n/a	n/a	n/a	n/a	n/a	ITI	poldrack-single-stim	s631	False	0
158.655	1.999	160.654	5.478735406646798	draw_card	1.999	columbia_card_task_fmri	9.0	0.9375	89.0	-100.0	0.0625	16.0	1.0	1.0	-6.39678697552991	1.999	n/a	stim	poldrack-single-stim	s631	False	1
160.657	0.875	161.532	5.024568739980132	draw_card	0.875	columbia_card_task_fmri	9.0	0.9333333333333332	89.0	-100.0	0.0666666666666666	16.0	2.0	1.0	-5.598116218192335	0.875	n/a	stim	poldrack-single-stim	s631	False	1
161.534	1.004	162.538	4.505521120932514	draw_card	1.004	columbia_card_task_fmri	9.0	0.9285714285714286	89.0	-100.0	0.0714285714285714	16.0	3.0	1.0	-4.721896949914946	1.004	n/a	stim	poldrack-single-stim	s631	False	1
162.542	0.958	163.5	3.9066200220314142	draw_card	0.958	columbia_card_task_fmri	9.0	0.9230769230769232	89.0	-100.0	0.0769230769230769	16.0	4.0	1.0	-3.7549313621328864	0.958	n/a	stim	poldrack-single-stim	s631	False	1
163.502	1.723	165.225	3.207902073313466	draw_card	1.723	columbia_card_task_fmri	9.0	0.9166666666666666	89.0	-100.0	0.0833333333333333	16.0	5.0	1.0	-2.6807112124494985	1.723	n/a	stim	poldrack-single-stim	s631	False	1
165.227	1.632	166.859	2.3821444975558883	draw_card	1.632	columbia_card_task_fmri	9.0	0.9090909090909092	89.0	-100.0	0.0909090909090909	16.0	6.0	1.0	-1.4783018644489443	1.632	n/a	stim	poldrack-single-stim	s631	False	1
166.861	0.655	167.516	1.391235406646798	draw_card	0.655	columbia_card_task_fmri	9.0	0.9	89.0	-100.0	0.1	16.0	7.0	1.0	-0.1207554265224146	0.655	n/a	stim	poldrack-single-stim	s631	False	1
167.518	0.874	168.392	0.1801242955356876	draw_card	0.874	columbia_card_task_fmri	9.0	0.8888888888888888	89.0	-100.0	0.1111111111111111	16.0	8.0	1.0	1.42717330838574	0.874	n/a	stim	poldrack-single-stim	s631	False	1
168.395	0.655	169.05	-1.3337645933532016	draw_card	0.655	columbia_card_task_fmri	9.0	0.875	89.0	-100.0	0.125	16.0	9.0	1.0	3.2123271138987235	0.655	n/a	stim	poldrack-single-stim	s631	False	1
169.052	0.068	169.12	-3.280193164781771	draw_card	0.068	columbia_card_task_fmri	9.0	0.8571428571428572	89.0	-100.0	0.1428571428571428	16.0	10.0	1.0	5.297821240216756	0.068	n/a	stim	poldrack-single-stim	s631	False	1
169.123	2.733	171.856	-5.875431260019866	draw_card	2.733	columbia_card_task_fmri	9.0	0.8333333333333334	89.0	-100.0	0.1666666666666666	16.0	11.0	1.0	7.769044924376516	2.733	n/a	stim	poldrack-single-stim	s631	False	1
171.859	4.517	176.376	-9.508764593353202	end_round	4.517	columbia_card_task_fmri	9.0	0.8	71.0	-100.0	0.2	16.0	12.0	1.0	10.73807786261213	4.517	11.0	stim	poldrack-single-stim	s631	False	1
177.128	1.5	176.377	n/a	-1.0	2.386	columbia_card_task_fmri	n/a	n/a	-1.0	n/a	n/a	n/a	n/a	n/a	n/a	n/a	n/a	ITI	poldrack-single-stim	s631	False	0
178.768	6.778	185.546	6.416235406646798	draw_card	6.778	columbia_card_task_fmri	15.0	0.875	89.0	-80.0	0.125	16.0	1.0	2.0	-1.3957547405080888	6.778	n/a	stim	poldrack-single-stim	s631	False	1
185.548	0.334	185.882	5.624568739980132	draw_card	0.334	columbia_card_task_fmri	15.0	0.8666666666666667	89.0	-80.0	0.1333333333333333	16.0	2.0	2.0	-0.5248976726897254	0.334	n/a	stim	poldrack-single-stim	s631	False	1
185.885	0.349	186.234	4.719806835218229	draw_card	0.349	columbia_card_task_fmri	15.0	0.8571428571428572	89.0	-80.0	0.1428571428571428	16.0	3.0	2.0	0.4196338921012028	0.349	n/a	stim	poldrack-single-stim	s631	False	1
186.239	0.6	186.839	3.6758507912621816	draw_card	0.6	columbia_card_task_fmri	15.0	0.8461538461538461	89.0	-80.0	0.1538461538461538	16.0	4.0	2.0	1.4477983773613232	0.6	n/a	stim	poldrack-single-stim	s631	False	1
186.842	1.521	188.363	2.457902073313466	draw_card	1.521	columbia_card_task_fmri	15.0	0.8333333333333334	89.0	-80.0	0.1666666666666666	16.0	5.0	2.0	2.571090610338309	1.521	n/a	stim	poldrack-single-stim	s631	False	1
188.366	5.382	193.748	1.0185081339195232	draw_card	5.382	columbia_card_task_fmri	15.0	0.8181818181818181	89.0	-80.0	0.1818181818181818	16.0	6.0	2.0	3.802538045112918	5.382	n/a	stim	poldrack-single-stim	s631	False	1
193.751	2.642	196.393	-0.7087645933532016	draw_card	2.642	columbia_card_task_fmri	15.0	0.8	89.0	-80.0	0.2	16.0	7.0	2.0	5.156294546954918	2.642	n/a	stim	poldrack-single-stim	s631	False	1
196.395	3.644	200.039	-2.819875704464314	draw_card	3.644	columbia_card_task_fmri	15.0	0.7777777777777778	89.0	-80.0	0.2222222222222222	16.0	8.0	2.0	6.646199918429673	3.644	n/a	stim	poldrack-single-stim	s631	False	1
200.043	5.371	205.414	-5.458764593353202	draw_card	5.371	columbia_card_task_fmri	15.0	0.75	89.0	-80.0	0.25	16.0	9.0	2.0	8.281691117793756	5.371	9.0	stim	poldrack-single-stim	s631	False	0
206.167	1.5	205.416	n/a	-1.0	2.318	columbia_card_task_fmri	n/a	n/a	-1.0	n/a	n/a	n/a	n/a	n/a	n/a	n/a	n/a	ITI	poldrack-single-stim	s631	False	0
207.738	5.168	212.906	8.541235406646798	draw_card	5.168	columbia_card_task_fmri	16.0	0.875	89.0	-70.0	0.125	16.0	1.0	2.0	-4.354347337678181	5.168	n/a	stim	poldrack-single-stim	s631	False	1
212.909	0.177	213.086	7.824568739980132	draw_card	0.177	columbia_card_task_fmri	16.0	0.8666666666666667	89.0	-70.0	0.1333333333333333	16.0	2.0	2.0	-3.566908024377668	0.177	n/a	stim	poldrack-single-stim	s631	False	1
213.089	0.151	213.24	7.005521120932514	draw_card	0.151	columbia_card_task_fmri	16.0	0.8571428571428572	89.0	-70.0	0.1428571428571428	16.0	3.0	2.0	-2.712797482792336	0.151	n/a	stim	poldrack-single-stim	s631	False	1
213.243	0.141	213.384	6.060466175877567	draw_card	0.141	columbia_card_task_fmri	16.0	0.8461538461538461	89.0	-70.0	0.1538461538461538	16.0	4.0	2.0	-1.7830018176428697	0.141	n/a	stim	poldrack-single-stim	s631	False	1
213.388	0.305	213.693	4.957902073313466	draw_card	0.305	columbia_card_task_fmri	16.0	0.8333333333333334	89.0	-70.0	0.1666666666666666	16.0	5.0	2.0	-0.7671160593869715	0.305	n/a	stim	poldrack-single-stim	s631	False	1
213.696	0.342	214.038	3.65487177028316	draw_card	0.342	columbia_card_task_fmri	16.0	0.8181818181818181	89.0	-70.0	0.1818181818181818	16.0	6.0	2.0	0.3466526888866141	0.342	n/a	stim	poldrack-single-stim	s631	False	1
214.042	0.31	214.352	2.091235406646799	draw_card	0.31	columbia_card_task_fmri	16.0	0.8	89.0	-70.0	0.2	16.0	7.0	2.0	1.5711180432552825	0.31	n/a	stim	poldrack-single-stim	s631	False	1
214.356	0.391	214.747	0.1801242955356876	draw_card	0.391	columbia_card_task_fmri	16.0	0.7777777777777778	89.0	-70.0	0.2222222222222222	16.0	8.0	2.0	2.918811376873535	0.391	n/a	stim	poldrack-single-stim	s631	False	1
214.75	0.503	215.253	-2.2087645933532016	draw_card	0.503	columbia_card_task_fmri	16.0	0.75	89.0	-70.0	0.25	16.0	9.0	2.0	4.398282600513696	0.503	n/a	stim	poldrack-single-stim	s631	False	1
215.257	1.626	216.883	-5.280193164781773	draw_card	1.626	columbia_card_task_fmri	16.0	0.7142857142857143	89.0	-70.0	0.2857142857142857	16.0	10.0	2.0	6.0040300309260175	1.626	n/a	stim	poldrack-single-stim	s631	False	1
216.886	1.184	218.07	-9.375431260019866	draw_card	1.184	columbia_card_task_fmri	16.0	0.6666666666666667	89.0	-70.0	0.3333333333333333	16.0	11.0	2.0	7.68819757489468	1.184	n/a	stim	poldrack-single-stim	s631	False	1
218.072	5.677	223.749	-15.1087645933532	end_round	5.677	columbia_card_task_fmri	16.0	0.6	71.0	-70.0	0.4	16.0	12.0	2.0	9.273613020951608	5.677	11.0	stim	poldrack-single-stim	s631	False	1
224.504	1.5	223.753	n/a	-1.0	2.25	columbia_card_task_fmri	n/a	n/a	-1.0	n/a	n/a	n/a	n/a	n/a	n/a	n/a	n/a	ITI	poldrack-single-stim	s631	False	0
226.007	1.798	227.805	9.853735406646798	draw_card	1.798	columbia_card_task_fmri	30.0	0.6875	89.0	-45.0	0.3125	16.0	1.0	5.0	1.9329135569406048	1.798	n/a	stim	poldrack-single-stim	s631	False	1
227.807	0.904	228.711	8.291235406646802	draw_card	0.904	columbia_card_task_fmri	30.0	0.6666666666666667	89.0	-45.0	0.3333333333333333	16.0	2.0	5.0	2.522230980599886	0.904	n/a	stim	poldrack-single-stim	s631	False	1
228.714	1.133	229.847	6.50552112093251	draw_card	1.133	columbia_card_task_fmri	30.0	0.6428571428571428	89.0	-45.0	0.3571428571428571	16.0	3.0	5.0	3.101235769440372	1.133	n/a	stim	poldrack-single-stim	s631	False	1
229.85	0.716	230.566	4.445081560492952	draw_card	0.716	columbia_card_task_fmri	30.0	0.6153846153846154	89.0	-45.0	0.3846153846153846	16.0	4.0	5.0	3.649986204292056	0.716	4.0	stim	poldrack-single-stim	s631	False	0
231.32	1.5	230.569	n/a	-1.0	2.25	columbia_card_task_fmri	n/a	n/a	-1.0	n/a	n/a	n/a	n/a	n/a	n/a	n/a	n/a	ITI	poldrack-single-stim	s631	False	0
232.822	1.248	234.07	1.6245687399801323	draw_card	1.248	columbia_card_task_fmri	13.0	0.8333333333333334	89.0	-75.0	0.1666666666666666	6.0	1.0	1.0	-0.0255712645260146	1.248	n/a	stim	poldrack-single-stim	s631	False	1
234.073	0.311	234.384	-1.3087645933532013	draw_card	0.311	columbia_card_task_fmri	13.0	0.8	89.0	-75.0	0.2	6.0	2.0	1.0	2.367563577498544	0.311	n/a	stim	poldrack-single-stim	s631	False	1
234.387	0.418	234.805	-5.708764593353202	draw_card	0.418	columbia_card_task_fmri	13.0	0.75	89.0	-75.0	0.25	6.0	3.0	1.0	5.261021320673031	0.418	n/a	stim	poldrack-single-stim	s631	False	1
234.807	1.19	235.997	-13.042097926686534	draw_card	1.19	columbia_card_task_fmri	13.0	0.6666666666666667	89.0	-75.0	0.3333333333333333	6.0	4.0	1.0	8.627984919706861	1.19	4.0	stim	poldrack-single-stim	s631	False	0
236.751	1.5	236.0	n/a	-1.0	2.454	columbia_card_task_fmri	n/a	n/a	-1.0	n/a	n/a	n/a	n/a	n/a	n/a	n/a	n/a	ITI	poldrack-single-stim	s631	False	0
238.458	1.241	239.699	3.2912354066468	draw_card	1.241	columbia_card_task_fmri	14.0	0.8333333333333334	89.0	-70.0	0.1666666666666666	6.0	1.0	1.0	-1.5084808243473908	1.241	n/a	stim	poldrack-single-stim	s631	False	1
239.702	0.286	239.988	0.4912354066467994	draw_card	0.286	columbia_card_task_fmri	14.0	0.8	89.0	-70.0	0.2	6.0	2.0	1.0	0.774840589258389	0.286	2.0	stim	poldrack-single-stim	s631	False	0
240.741	1.5	239.99	n/a	-1.0	2.454	columbia_card_task_fmri	n/a	n/a	-1.0	n/a	n/a	n/a	n/a	n/a	n/a	n/a	n/a	ITI	poldrack-single-stim	s631	False	0
242.448	0.483	242.931	3.2912354066468	draw_card	0.483	columbia_card_task_fmri	16.0	0.8333333333333334	89.0	-80.0	0.1666666666666666	6.0	1.0	1.0	2.942185228689219	0.483	n/a	stim	poldrack-single-stim	s631	False	1
242.934	0.628	243.562	0.091235406646799	draw_card	0.628	columbia_card_task_fmri	16.0	0.8	89.0	-80.0	0.2	6.0	2.0	1.0	5.554818081768715	0.628	n/a	stim	poldrack-single-stim	s631	False	1
243.566	0.47	244.036	-4.708764593353202	draw_card	0.47	columbia_card_task_fmri	16.0	0.75	89.0	-80.0	0.25	6.0	3.0	1.0	8.713338812331791	0.47	n/a	stim	poldrack-single-stim	s631	False	1
244.04	1.501	245.541	-12.708764593353198	draw_card	1.501	columbia_card_task_fmri	16.0	0.6666666666666667	89.0	-80.0	0.3333333333333333	6.0	4.0	1.0	12.388388027811844	1.501	4.0	stim	poldrack-single-stim	s631	False	0
246.293	1.5	245.542	n/a	-1.0	2.522	columbia_card_task_fmri	n/a	n/a	-1.0	n/a	n/a	n/a	n/a	n/a	n/a	n/a	n/a	ITI	poldrack-single-stim	s631	False	0
248.069	0.338	248.407	5.7912354066468	draw_card	0.338	columbia_card_task_fmri	17.0	0.8333333333333334	89.0	-70.0	0.1666666666666666	6.0	1.0	1.0	-0.3963653976879087	0.338	n/a	stim	poldrack-single-stim	s631	False	1
248.41	0.343	248.753	2.8912354066468	draw_card	0.343	columbia_card_task_fmri	17.0	0.8	89.0	-70.0	0.2	6.0	2.0	1.0	1.969320518349953	0.343	n/a	stim	poldrack-single-stim	s631	False	1
248.756	0.338	249.094	-1.4587645933532016	draw_card	0.338	columbia_card_task_fmri	17.0	0.75	89.0	-70.0	0.25	6.0	3.0	1.0	4.8296331789957065	0.338	n/a	stim	poldrack-single-stim	s631	False	1
249.097	3.076	252.173	-8.7087645933532	draw_card	3.076	columbia_card_task_fmri	17.0	0.6666666666666667	89.0	-70.0	0.3333333333333333	6.0	4.0	1.0	8.158073964621785	3.076	4.0	stim	poldrack-single-stim	s631	False	0
252.926	1.5	252.175	n/a	-1.0	2.386	columbia_card_task_fmri	n/a	n/a	-1.0	n/a	n/a	n/a	n/a	n/a	n/a	n/a	n/a	ITI	poldrack-single-stim	s631	False	0
254.565	1.368	255.933	5.791235406646798	draw_card	1.368	columbia_card_task_fmri	25.0	0.75	89.0	-65.0	0.25	8.0	1.0	2.0	6.1239053215693104	1.368	n/a	stim	poldrack-single-stim	s631	False	1
255.935	1.094	257.029	2.5769496923610866	draw_card	1.094	columbia_card_task_fmri	25.0	0.7142857142857143	89.0	-65.0	0.2857142857142857	8.0	2.0	2.0	7.804881636052173	1.094	n/a	stim	poldrack-single-stim	s631	False	1
257.032	0.546	257.578	-1.708764593353198	draw_card	0.546	columbia_card_task_fmri	25.0	0.6666666666666667	89.0	-65.0	0.3333333333333333	8.0	3.0	2.0	9.567905945515868	0.546	n/a	stim	poldrack-single-stim	s631	False	1
257.582	0.472	258.054	-7.708764593353202	draw_card	0.472	columbia_card_task_fmri	25.0	0.6	89.0	-65.0	0.4	8.0	4.0	2.0	11.227516211316484	0.472	n/a	stim	poldrack-single-stim	s631	False	1
258.057	5.71	263.767	-16.7087645933532	end_round	5.71	columbia_card_task_fmri	25.0	0.5	71.0	-65.0	0.5	8.0	5.0	2.0	12.13422908726728	5.71	4.0	stim	poldrack-single-stim	s631	False	1
264.522	1.5	263.771	n/a	-1.0	2.454	columbia_card_task_fmri	n/a	n/a	-1.0	n/a	n/a	n/a	n/a	n/a	n/a	n/a	n/a	ITI	poldrack-single-stim	s631	False	0
266.229	3.538	269.767	5.791235406646798	draw_card	3.538	columbia_card_task_fmri	30.0	0.75	89.0	-80.0	0.25	8.0	1.0	2.0	14.759002233084622	3.538	n/a	stim	poldrack-single-stim	s631	False	1
269.77	0.576	270.346	1.8626639780753749	draw_card	0.576	columbia_card_task_fmri	30.0	0.7142857142857143	89.0	-80.0	0.2857142857142857	8.0	2.0	2.0	16.81583854950957	0.576	n/a	stim	poldrack-single-stim	s631	False	1
270.35	0.565	270.915	-3.3754312600198624	draw_card	0.565	columbia_card_task_fmri	30.0	0.6666666666666667	89.0	-80.0	0.3333333333333333	8.0	3.0	2.0	18.97287212577268	0.565	3.0	stim	poldrack-single-stim	s631	False	0
271.668	1.5	270.917	n/a	-1.0	2.522	columbia_card_task_fmri	n/a	n/a	-1.0	n/a	n/a	n/a	n/a	n/a	n/a	n/a	n/a	ITI	poldrack-single-stim	s631	False	0
273.444	2.076	275.52	5.491235406646799	draw_card	2.076	columbia_card_task_fmri	13.0	0.9	89.0	-95.0	0.1	10.0	1.0	1.0	-0.4192334722707826	2.076	n/a	stim	poldrack-single-stim	s631	False	1
275.523	0.281	275.804	4.291235406646798	draw_card	0.281	columbia_card_task_fmri	13.0	0.8888888888888888	89.0	-95.0	0.1111111111111111	10.0	2.0	1.0	1.1143574567989631	0.281	n/a	stim	poldrack-single-stim	s631	False	1
275.807	0.207	276.014	2.7912354066467984	draw_card	0.207	columbia_card_task_fmri	13.0	0.875	89.0	-95.0	0.125	10.0	3.0	1.0	2.882990647884	0.207	n/a	stim	poldrack-single-stim	s631	False	1
276.018	0.219	276.237	0.8626639780753713	draw_card	0.219	columbia_card_task_fmri	13.0	0.8571428571428572	89.0	-95.0	0.1428571428571428	10.0	4.0	1.0	4.949201570834653	0.219	n/a	stim	poldrack-single-stim	s631	False	1
276.24	0.301	276.541	-1.7087645933532	draw_card	0.301	columbia_card_task_fmri	13.0	0.8333333333333334	89.0	-95.0	0.1666666666666666	10.0	5.0	1.0	7.397595363702869	0.301	n/a	stim	poldrack-single-stim	s631	False	1
276.545	2.107	278.652	-5.308764593353201	draw_card	2.107	columbia_card_task_fmri	13.0	0.8	89.0	-95.0	0.2	10.0	6.0	1.0	10.339223136293036	2.107	n/a	stim	poldrack-single-stim	s631	False	1
278.655	1.698	280.353	-10.708764593353202	draw_card	1.698	columbia_card_task_fmri	13.0	0.75	89.0	-95.0	0.25	10.0	7.0	1.0	13.895074900362856	1.698	n/a	stim	poldrack-single-stim	s631	False	1
280.357	1.319	281.676	-19.7087645933532	end_round	1.319	columbia_card_task_fmri	13.0	0.6666666666666667	71.0	-95.0	0.3333333333333333	10.0	8.0	1.0	18.03199137972741	1.319	7.0	stim	poldrack-single-stim	s631	False	1
282.431	1.5	281.68	n/a	-1.0	2.522	columbia_card_task_fmri	n/a	n/a	-1.0	n/a	n/a	n/a	n/a	n/a	n/a	n/a	n/a	ITI	poldrack-single-stim	s631	False	0
284.205	2.938	287.143	6.891235406646798	draw_card	2.938	columbia_card_task_fmri	14.0	0.9	89.0	-90.0	0.1	10.0	1.0	1.0	-1.6128553237260093	2.938	n/a	stim	poldrack-single-stim	s631	False	1
287.146	0.199	287.345	5.735679851091241	draw_card	0.199	columbia_card_task_fmri	14.0	0.8888888888888888	89.0	-90.0	0.1111111111111111	10.0	2.0	1.0	-0.1366284161353803	0.199	n/a	stim	poldrack-single-stim	s631	False	1
287.347	0.143	287.49	4.291235406646798	draw_card	0.143	columbia_card_task_fmri	14.0	0.875	89.0	-90.0	0.125	10.0	3.0	1.0	1.5659088781983783	0.143	n/a	stim	poldrack-single-stim	s631	False	1
287.494	0.316	287.81	2.4340925495039425	draw_card	0.316	columbia_card_task_fmri	14.0	0.8571428571428572	89.0	-90.0	0.1428571428571428	10.0	4.0	1.0	3.554972834550739	0.316	4.0	stim	poldrack-single-stim	s631	False	0
288.565	1.5	287.814	n/a	-1.0	2.59	columbia_card_task_fmri	n/a	n/a	-1.0	n/a	n/a	n/a	n/a	n/a	n/a	n/a	n/a	ITI	poldrack-single-stim	s631	False	0
290.407	0.669	291.076	2.091235406646799	draw_card	0.669	columbia_card_task_fmri	16.0	0.8	89.0	-70.0	0.2	10.0	1.0	2.0	1.5711180432552825	0.669	n/a	stim	poldrack-single-stim	s631	False	1
291.08	0.315	291.395	0.1801242955356876	draw_card	0.315	columbia_card_task_fmri	16.0	0.7777777777777778	89.0	-70.0	0.2222222222222222	10.0	2.0	2.0	2.918811376873535	0.315	n/a	stim	poldrack-single-stim	s631	False	1
291.399	0.323	291.722	-2.2087645933532016	draw_card	0.323	columbia_card_task_fmri	16.0	0.75	89.0	-70.0	0.25	10.0	3.0	2.0	4.398282600513696	0.323	n/a	stim	poldrack-single-stim	s631	False	1
291.725	0.339	292.064	-5.280193164781773	draw_card	0.339	columbia_card_task_fmri	16.0	0.7142857142857143	89.0	-70.0	0.2857142857142857	10.0	4.0	2.0	6.0040300309260175	0.339	4.0	stim	poldrack-single-stim	s631	False	0
292.819	1.5	292.068	n/a	-1.0	2.454	columbia_card_task_fmri	n/a	n/a	-1.0	n/a	n/a	n/a	n/a	n/a	n/a	n/a	n/a	ITI	poldrack-single-stim	s631	False	0
294.526	0.643	295.169	1.3745687399801323	draw_card	0.643	columbia_card_task_fmri	7.0	0.9166666666666666	89.0	-100.0	0.0833333333333333	12.0	1.0	1.0	-3.230151938075146	0.643	n/a	stim	poldrack-single-stim	s631	False	1
295.173	0.423	295.596	0.56396267937407	draw_card	0.423	columbia_card_task_fmri	7.0	0.9090909090909092	89.0	-100.0	0.0909090909090909	12.0	2.0	1.0	-2.050057692646103	0.423	n/a	stim	poldrack-single-stim	s631	False	1
295.599	0.437	296.036	-0.4087645933532018	draw_card	0.437	columbia_card_task_fmri	7.0	0.9	89.0	-100.0	0.1	12.0	3.0	1.0	-0.7176832904080896	0.437	n/a	stim	poldrack-single-stim	s631	False	1
296.04	1.315	297.355	-1.597653482242091	draw_card	1.315	columbia_card_task_fmri	7.0	0.8888888888888888	89.0	-100.0	0.1111111111111111	12.0	4.0	1.0	0.8015685878080703	1.315	n/a	stim	poldrack-single-stim	s631	False	1
297.359	0.659	298.018	-3.0837645933532016	draw_card	0.659	columbia_card_task_fmri	7.0	0.875	89.0	-100.0	0.125	12.0	5.0	1.0	2.553679857207236	0.659	5.0	stim	poldrack-single-stim	s631	False	0
298.772	1.5	298.021	n/a	-1.0	2.318	columbia_card_task_fmri	n/a	n/a	-1.0	n/a	n/a	n/a	n/a	n/a	n/a	n/a	n/a	ITI	poldrack-single-stim	s631	False	0
300.344	0.631	300.975	1.624568739980134	draw_card	0.631	columbia_card_task_fmri	14.0	0.8333333333333334	89.0	-80.0	0.1666666666666666	12.0	1.0	2.0	2.2000294619398915	0.631	1.0	stim	poldrack-single-stim	s631	False	0
301.728	1.5	300.977	n/a	-1.0	2.25	columbia_card_task_fmri	n/a	n/a	-1.0	n/a	n/a	n/a	n/a	n/a	n/a	n/a	n/a	ITI	poldrack-single-stim	s631	False	0
303.233	0.588	303.821	3.2912354066467984	draw_card	0.588	columbia_card_task_fmri	15.0	0.8333333333333334	89.0	-75.0	0.1666666666666666	12.0	1.0	2.0	0.7161416766876911	0.588	n/a	stim	poldrack-single-stim	s631	False	1
303.825	0.527	304.352	1.9275990430104333	draw_card	0.527	columbia_card_task_fmri	15.0	0.8181818181818181	89.0	-75.0	0.1818181818181818	12.0	2.0	2.0	1.8822248578826264	0.527	n/a	stim	poldrack-single-stim	s631	False	1
304.356	0.477	304.833	0.2912354066467983	draw_card	0.477	columbia_card_task_fmri	15.0	0.8	89.0	-75.0	0.2	12.0	3.0	2.0	3.1641660827563958	0.477	n/a	stim	poldrack-single-stim	s631	False	1
304.838	0.587	305.425	-1.7087645933532	draw_card	0.587	columbia_card_task_fmri	15.0	0.7777777777777778	89.0	-75.0	0.2222222222222222	12.0	4.0	2.0	4.575078215254408	0.587	4.0	stim	poldrack-single-stim	s631	False	0
306.179	1.5	305.428	n/a	-1.0	2.658	columbia_card_task_fmri	n/a	n/a	-1.0	n/a	n/a	n/a	n/a	n/a	n/a	n/a	n/a	ITI	poldrack-single-stim	s631	False	0
308.091	1.061	309.152	2.2912354066467984	draw_card	1.061	columbia_card_task_fmri	15.0	0.8	89.0	-65.0	0.2	15.0	1.0	3.0	-0.817160154523755	1.061	n/a	stim	poldrack-single-stim	s631	False	1
309.157	0.319	309.476	1.148378263789656	draw_card	0.319	columbia_card_task_fmri	15.0	0.7857142857142857	89.0	-65.0	0.2142857142857142	15.0	2.0	3.0	0.0046854912855067	0.319	n/a	stim	poldrack-single-stim	s631	False	1
309.479	0.289	309.768	-0.170303054891665	draw_card	0.289	columbia_card_task_fmri	15.0	0.7692307692307692	89.0	-65.0	0.2307692307692307	15.0	3.0	3.0	0.8803407898698552	0.289	n/a	stim	poldrack-single-stim	s631	False	1
309.773	0.758	310.531	-1.7087645933532016	draw_card	0.758	columbia_card_task_fmri	15.0	0.75	89.0	-65.0	0.25	15.0	4.0	3.0	1.8110461759321268	0.758	n/a	stim	poldrack-single-stim	s631	False	1
310.535	0.61	311.145	-3.526946411535018	draw_card	0.61	columbia_card_task_fmri	15.0	0.7272727272727273	89.0	-65.0	0.2727272727272727	15.0	5.0	3.0	2.794664780536621	0.61	5.0	stim	poldrack-single-stim	s631	False	0
311.899	1.5	311.148	n/a	-1.0	2.454	columbia_card_task_fmri	n/a	n/a	-1.0	n/a	n/a	n/a	n/a	n/a	n/a	n/a	n/a	ITI	poldrack-single-stim	s631	False	0
313.605	0.397	314.002	1.5412354066467984	draw_card	0.397	columbia_card_task_fmri	14.0	0.8125	89.0	-70.0	0.1875	16.0	1.0	3.0	-0.0349483281642832	0.397	1.0	stim	poldrack-single-stim	s631	False	0
314.756	1.5	314.005	n/a	-1.0	2.386	columbia_card_task_fmri	n/a	n/a	-1.0	n/a	n/a	n/a	n/a	n/a	n/a	n/a	n/a	ITI	poldrack-single-stim	s631	False	0
316.396	0.487	316.883	1.4787354066467984	draw_card	0.487	columbia_card_task_fmri	11.0	0.6875	89.0	-30.0	0.3125	16.0	1.0	5.0	-13.699066878131454	0.487	n/a	stim	poldrack-single-stim	s631	False	1
316.885	0.666	317.551	0.6245687399801323	draw_card	0.666	columbia_card_task_fmri	11.0	0.6666666666666667	89.0	-30.0	0.3333333333333333	16.0	2.0	5.0	-13.380158494395465	0.666	n/a	stim	poldrack-single-stim	s631	False	1
317.554	0.707	318.261	-0.3516217362103457	draw_card	0.707	columbia_card_task_fmri	11.0	0.6428571428571428	89.0	-30.0	0.3571428571428571	16.0	3.0	5.0	-13.066728856629515	0.707	n/a	stim	poldrack-single-stim	s631	False	1
318.264	1.908	320.172	-1.47799536258397	draw_card	1.908	columbia_card_task_fmri	11.0	0.6153846153846154	89.0	-30.0	0.3846153846153846	16.0	4.0	5.0	-12.769587693758456	1.908	n/a	stim	poldrack-single-stim	s631	False	1
320.175	1.75	321.925	-2.792097926686536	draw_card	1.75	columbia_card_task_fmri	11.0	0.5833333333333333	89.0	-30.0	0.4166666666666667	16.0	5.0	5.0	-12.506500262139006	1.75	5.0	stim	poldrack-single-stim	s631	False	0
322.68	1.5	321.929	n/a	-1.0	2.59	columbia_card_task_fmri	n/a	n/a	-1.0	n/a	n/a	n/a	n/a	n/a	n/a	n/a	n/a	ITI	poldrack-single-stim	s631	False	0
324.524	0.525	325.049	6.291235406646798	draw_card	0.525	columbia_card_task_fmri	15.0	0.8666666666666667	89.0	-75.0	0.1333333333333333	15.0	1.0	2.0	-2.215329404040265	0.525	n/a	stim	poldrack-single-stim	s631	False	1
325.053	1.082	326.135	5.434092549503943	draw_card	1.082	columbia_card_task_fmri	15.0	0.8571428571428572	89.0	-75.0	0.1428571428571428	15.0	2.0	2.0	-1.3210199754254075	1.082	n/a	stim	poldrack-single-stim	s631	False	1
326.139	1.21	327.349	4.445081560492952	draw_card	1.21	columbia_card_task_fmri	15.0	0.8461538461538461	89.0	-75.0	0.1538461538461538	15.0	3.0	2.0	-0.34749273613334	1.21	n/a	stim	poldrack-single-stim	s631	False	1
327.353	0.287	327.64	3.2912354066467984	draw_card	0.287	columbia_card_task_fmri	15.0	0.8333333333333334	89.0	-75.0	0.1666666666666666	15.0	4.0	2.0	0.7161416766876911	0.287	n/a	stim	poldrack-single-stim	s631	False	1
327.644	0.365	328.009	1.9275990430104333	draw_card	0.365	columbia_card_task_fmri	15.0	0.8181818181818181	89.0	-75.0	0.1818181818181818	15.0	5.0	2.0	1.8822248578826264	0.365	n/a	stim	poldrack-single-stim	s631	False	1
328.013	0.298	328.311	0.2912354066467983	draw_card	0.298	columbia_card_task_fmri	15.0	0.8	89.0	-75.0	0.2	15.0	6.0	2.0	3.1641660827563958	0.298	n/a	stim	poldrack-single-stim	s631	False	1
328.316	0.413	328.729	-1.7087645933532	draw_card	0.413	columbia_card_task_fmri	15.0	0.7777777777777778	89.0	-75.0	0.2222222222222222	15.0	7.0	2.0	4.575078215254408	0.413	n/a	stim	poldrack-single-stim	s631	False	1
328.732	0.61	329.342	-4.208764593353202	draw_card	0.61	columbia_card_task_fmri	15.0	0.75	89.0	-75.0	0.25	15.0	8.0	2.0	6.1239053215693104	0.61	8.0	stim	poldrack-single-stim	s631	False	0
330.096	1.5	329.345	n/a	-1.0	2.318	columbia_card_task_fmri	n/a	n/a	-1.0	n/a	n/a	n/a	n/a	n/a	n/a	n/a	n/a	ITI	poldrack-single-stim	s631	False	0
331.668	0.551	332.219	8.024568739980133	draw_card	0.551	columbia_card_task_fmri	17.0	0.8666666666666667	89.0	-75.0	0.1333333333333333	15.0	1.0	2.0	-1.5392762638805948	0.551	n/a	stim	poldrack-single-stim	s631	False	1
332.224	0.368	332.592	7.148378263789658	draw_card	0.368	columbia_card_task_fmri	17.0	0.8571428571428572	89.0	-75.0	0.1428571428571428	15.0	2.0	2.0	-0.6248746737325135	0.368	n/a	stim	poldrack-single-stim	s631	False	1
332.596	0.276	332.872	6.137389252800645	draw_card	0.276	columbia_card_task_fmri	17.0	0.8461538461538461	89.0	-75.0	0.1538461538461538	15.0	3.0	2.0	0.3705108641375787	0.276	n/a	stim	poldrack-single-stim	s631	False	1
332.876	0.241	333.117	4.957902073313466	draw_card	0.241	columbia_card_task_fmri	17.0	0.8333333333333334	89.0	-75.0	0.1666666666666666	15.0	4.0	2.0	1.458011901719857	0.241	4.0	stim	poldrack-single-stim	s631	False	0
333.87	1.5	333.119	n/a	-1.0	2.59	columbia_card_task_fmri	n/a	n/a	-1.0	n/a	n/a	n/a	n/a	n/a	n/a	n/a	n/a	ITI	poldrack-single-stim	s631	False	0
335.714	0.498	336.212	3.6037354066467984	draw_card	0.498	columbia_card_task_fmri	2.0	0.9375	89.0	-25.0	0.0625	16.0	1.0	1.0	-25.668381860848555	0.498	n/a	stim	poldrack-single-stim	s631	False	1
336.216	0.376	336.592	3.4912354066467985	draw_card	0.376	columbia_card_task_fmri	2.0	0.9333333333333332	89.0	-25.0	0.0666666666666666	16.0	2.0	1.0	-25.48982079129361	0.376	n/a	stim	poldrack-single-stim	s631	False	1
336.597	0.38	336.977	3.36266397807537	draw_card	0.38	columbia_card_task_fmri	2.0	0.9285714285714286	89.0	-25.0	0.0714285714285714	16.0	3.0	1.0	-25.292837064345846	0.38	n/a	stim	poldrack-single-stim	s631	False	1
336.981	0.46	337.441	3.2143123297237217	draw_card	0.46	columbia_card_task_fmri	2.0	0.9230769230769232	89.0	-25.0	0.0769230769230769	16.0	4.0	1.0	-25.074233919108107	0.46	n/a	stim	poldrack-single-stim	s631	False	1
337.447	0.566	338.013	3.0412354066467984	draw_card	0.566	columbia_card_task_fmri	2.0	0.9166666666666666	89.0	-25.0	0.0833333333333333	16.0	5.0	1.0	-24.8300056219582	0.566	5.0	stim	poldrack-single-stim	s631	False	0
338.766	1.5	338.015	n/a	-1.0	2.386	columbia_card_task_fmri	n/a	n/a	-1.0	n/a	n/a	n/a	n/a	n/a	n/a	n/a	n/a	ITI	poldrack-single-stim	s631	False	0
340.406	0.377	340.783	5.791235406646798	draw_card	0.377	columbia_card_task_fmri	9.0	0.9375	89.0	-95.0	0.0625	16.0	1.0	1.0	-7.597344464888884	0.377	n/a	stim	poldrack-single-stim	s631	False	1
340.787	0.433	341.22	5.357902073313466	draw_card	0.433	columbia_card_task_fmri	9.0	0.9333333333333332	89.0	-95.0	0.0666666666666666	16.0	2.0	1.0	-6.835867430432295	0.433	n/a	stim	poldrack-single-stim	s631	False	1
341.224	0.254	341.478	4.86266397807537	draw_card	0.254	columbia_card_task_fmri	9.0	0.9285714285714286	89.0	-95.0	0.0714285714285714	16.0	3.0	1.0	-6.000417079070843	0.254	n/a	stim	poldrack-single-stim	s631	False	1
341.482	0.201	341.683	4.291235406646798	draw_card	0.201	columbia_card_task_fmri	9.0	0.9230769230769232	89.0	-95.0	0.0769230769230769	16.0	4.0	1.0	-5.078402673046721	0.201	n/a	stim	poldrack-single-stim	s631	False	1
341.686	0.273	341.959	3.624568739980132	draw_card	0.273	columbia_card_task_fmri	9.0	0.9166666666666666	89.0	-95.0	0.0833333333333333	16.0	5.0	1.0	-4.054075153665295	0.273	n/a	stim	poldrack-single-stim	s631	False	1
341.962	0.31	342.272	2.836689952101344	draw_card	0.31	columbia_card_task_fmri	9.0	0.9090909090909092	89.0	-95.0	0.0909090909090909	16.0	6.0	1.0	-2.9074624217827925	0.31	n/a	stim	poldrack-single-stim	s631	False	1
342.276	0.705	342.981	1.891235406646798	draw_card	0.705	columbia_card_task_fmri	9.0	0.9	89.0	-95.0	0.1	16.0	7.0	1.0	-1.6128553237260093	0.705	n/a	stim	poldrack-single-stim	s631	False	1
342.985	0.994	343.979	0.735679851091243	draw_card	0.994	columbia_card_task_fmri	9.0	0.8888888888888888	89.0	-95.0	0.1111111111111111	16.0	8.0	1.0	-0.1366284161353803	0.994	n/a	stim	poldrack-single-stim	s631	False	1
343.982	0.358	344.34	-0.7087645933532016	draw_card	0.358	columbia_card_task_fmri	9.0	0.875	89.0	-95.0	0.125	16.0	9.0	1.0	1.5659088781983783	0.358	9.0	stim	poldrack-single-stim	s631	False	0
345.094	1.5	344.343	n/a	-1.0	2.318	columbia_card_task_fmri	n/a	n/a	-1.0	n/a	n/a	n/a	n/a	n/a	n/a	n/a	n/a	ITI	poldrack-single-stim	s631	False	0
346.666	0.339	347.005	7.353735406646798	draw_card	0.339	columbia_card_task_fmri	11.0	0.9375	89.0	-100.0	0.0625	16.0	1.0	1.0	-5.916320845491818	0.339	n/a	stim	poldrack-single-stim	s631	False	1
347.01	0.245	347.255	6.891235406646799	draw_card	0.245	columbia_card_task_fmri	11.0	0.9333333333333332	89.0	-100.0	0.0666666666666666	16.0	2.0	1.0	-5.102779471737254	0.245	n/a	stim	poldrack-single-stim	s631	False	1
347.259	0.203	347.462	6.362663978075371	draw_card	0.203	columbia_card_task_fmri	11.0	0.9285714285714286	89.0	-100.0	0.0714285714285714	16.0	3.0	1.0	-4.210259750160596	0.203	n/a	stim	poldrack-single-stim	s631	False	1
347.465	0.26	347.725	5.752773868185261	draw_card	0.26	columbia_card_task_fmri	11.0	0.9230769230769232	89.0	-100.0	0.0769230769230769	16.0	4.0	1.0	-3.2253210657882185	0.26	n/a	stim	poldrack-single-stim	s631	False	1
347.729	0.237	347.966	5.041235406646798	draw_card	0.237	columbia_card_task_fmri	11.0	0.9166666666666666	89.0	-100.0	0.0833333333333333	16.0	5.0	1.0	-2.131151528035069	0.237	n/a	stim	poldrack-single-stim	s631	False	1
347.969	0.402	348.371	4.200326315737707	draw_card	0.402	columbia_card_task_fmri	11.0	0.9090909090909092	89.0	-100.0	0.0909090909090909	16.0	6.0	1.0	-0.906431514901982	0.402	n/a	stim	poldrack-single-stim	s631	False	1
348.375	0.495	348.87	3.1912354066467987	draw_card	0.495	columbia_card_task_fmri	11.0	0.9	89.0	-100.0	0.1	16.0	7.0	1.0	0.4762823263056788	0.495	n/a	stim	poldrack-single-stim	s631	False	1
348.873	0.44	349.313	1.9579020733134644	draw_card	0.44	columbia_card_task_fmri	11.0	0.8888888888888888	89.0	-100.0	0.1111111111111111	16.0	8.0	1.0	2.052883068579092	0.44	n/a	stim	poldrack-single-stim	s631	False	1
349.316	0.442	349.758	0.4162354066467983	draw_card	0.442	columbia_card_task_fmri	11.0	0.875	89.0	-100.0	0.125	16.0	9.0	1.0	3.871074318821691	0.442	n/a	stim	poldrack-single-stim	s631	False	1
349.761	1.424	351.185	-1.5659074504960575	draw_card	1.424	columbia_card_task_fmri	11.0	0.8571428571428572	89.0	-100.0	0.1428571428571428	16.0	10.0	1.0	5.995130867393804	1.424	n/a	stim	poldrack-single-stim	s631	False	1
351.189	1.13	352.319	-4.208764593353198	draw_card	1.13	columbia_card_task_fmri	11.0	0.8333333333333334	89.0	-100.0	0.1666666666666666	16.0	11.0	1.0	8.512010129435993	1.13	n/a	stim	poldrack-single-stim	s631	False	1
352.322	1.787	354.109	-7.908764593353201	end_round	1.787	columbia_card_task_fmri	11.0	0.8	71.0	-100.0	0.2	16.0	12.0	1.0	11.535848964211098	1.787	11.0	stim	poldrack-single-stim	s631	False	1
354.863	1.5	354.112	n/a	-1.0	2.318	columbia_card_task_fmri	n/a	n/a	-1.0	n/a	n/a	n/a	n/a	n/a	n/a	n/a	n/a	ITI	poldrack-single-stim	s631	False	0
356.436	1.032	357.468	7.916235406646798	draw_card	1.032	columbia_card_task_fmri	16.0	0.875	89.0	-75.0	0.125	16.0	1.0	2.0	-2.711117461954071	1.032	n/a	stim	poldrack-single-stim	s631	False	1
357.472	0.146	357.618	7.1579020733134655	draw_card	0.146	columbia_card_task_fmri	16.0	0.8666666666666667	89.0	-75.0	0.1333333333333333	16.0	2.0	2.0	-1.8773236254968104	0.146	n/a	stim	poldrack-single-stim	s631	False	1
357.622	0.147	357.769	6.2912354066468	draw_card	0.147	columbia_card_task_fmri	16.0	0.8571428571428572	89.0	-75.0	0.1428571428571428	16.0	3.0	2.0	-0.9729675415045378	0.147	3.0	stim	poldrack-single-stim	s631	False	0
358.523	1.5	357.772	n/a	-1.0	2.318	columbia_card_task_fmri	n/a	n/a	-1.0	n/a	n/a	n/a	n/a	n/a	n/a	n/a	n/a	ITI	poldrack-single-stim	s631	False	0
360.096	0.358	360.454	8.166235406646798	draw_card	0.358	columbia_card_task_fmri	17.0	0.875	89.0	-80.0	0.125	16.0	1.0	2.0	-0.7378428898555853	0.358	n/a	stim	poldrack-single-stim	s631	False	1
360.458	0.181	360.639	7.357902073313467	draw_card	0.181	columbia_card_task_fmri	17.0	0.8666666666666667	89.0	-80.0	0.1333333333333333	16.0	2.0	2.0	0.151539743471929	0.181	n/a	stim	poldrack-single-stim	s631	False	1
360.643	0.243	360.886	6.434092549503944	draw_card	0.243	columbia_card_task_fmri	17.0	0.8571428571428572	89.0	-80.0	0.1428571428571428	16.0	3.0	2.0	1.1161528319570737	0.243	n/a	stim	poldrack-single-stim	s631	False	1
360.89	0.233	361.123	5.368158483569875	draw_card	0.233	columbia_card_task_fmri	17.0	0.8461538461538461	89.0	-80.0	0.1538461538461538	16.0	4.0	2.0	2.166164679110871	0.233	n/a	stim	poldrack-single-stim	s631	False	1
361.127	0.373	361.5	4.124568739980134	draw_card	0.373	columbia_card_task_fmri	17.0	0.8333333333333334	89.0	-80.0	0.1666666666666666	16.0	5.0	2.0	3.31331229048309	0.373	n/a	stim	poldrack-single-stim	s631	False	1
361.504	0.312	361.816	2.65487177028316	draw_card	0.312	columbia_card_task_fmri	17.0	0.8181818181818181	89.0	-80.0	0.1818181818181818	16.0	6.0	2.0	4.570897460284343	0.312	6.0	stim	poldrack-single-stim	s631	False	0
362.569	1.5	361.818	n/a	-1.0	2.386	columbia_card_task_fmri	n/a	n/a	-1.0	n/a	n/a	n/a	n/a	n/a	n/a	n/a	n/a	ITI	poldrack-single-stim	s631	False	0
375.21	2.415	377.625	2.457902073313466	draw_card	2.415	columbia_card_task_fmri	13.0	0.8333333333333334	89.0	-70.0	0.1666666666666666	6.0	1.0	1.0	-1.879091673035184	2.415	n/a	stim	poldrack-single-stim	s631	False	1
377.629	0.88	378.509	-0.3087645933532013	draw_card	0.88	columbia_card_task_fmri	13.0	0.8	89.0	-70.0	0.2	6.0	2.0	1.0	0.3767686533423457	0.88	2.0	stim	poldrack-single-stim	s631	False	0
379.264	1.5	378.513	n/a	-1.0	2.25	columbia_card_task_fmri	n/a	n/a	-1.0	n/a	n/a	n/a	n/a	n/a	n/a	n/a	n/a	ITI	poldrack-single-stim	s631	False	0
380.768	3.321	384.089	2.457902073313466	draw_card	3.321	columbia_card_task_fmri	15.0	0.8333333333333334	89.0	-80.0	0.1666666666666666	6.0	1.0	1.0	2.571090610338309	3.321	n/a	stim	poldrack-single-stim	s631	False	1
384.092	1.173	385.265	-0.7087645933532016	draw_card	1.173	columbia_card_task_fmri	15.0	0.8	89.0	-80.0	0.2	6.0	2.0	1.0	5.156294546954918	1.173	n/a	stim	poldrack-single-stim	s631	False	1
385.27	3.149	388.419	-5.458764593353202	draw_card	3.149	columbia_card_task_fmri	15.0	0.75	89.0	-80.0	0.25	6.0	3.0	1.0	8.281691117793756	3.149	3.0	stim	poldrack-single-stim	s631	False	0
389.173	1.5	388.422	n/a	-1.0	2.386	columbia_card_task_fmri	n/a	n/a	-1.0	n/a	n/a	n/a	n/a	n/a	n/a	n/a	n/a	ITI	poldrack-single-stim	s631	False	0
390.813	0.411	391.224	4.124568739980132	draw_card	0.411	columbia_card_task_fmri	16.0	0.8333333333333334	89.0	-75.0	0.1666666666666666	6.0	1.0	1.0	1.087057770775246	0.411	n/a	stim	poldrack-single-stim	s631	False	1
391.228	0.408	391.636	1.091235406646799	draw_card	0.408	columbia_card_task_fmri	16.0	0.8	89.0	-75.0	0.2	6.0	2.0	1.0	3.562522992122368	0.408	n/a	stim	poldrack-single-stim	s631	False	1
391.641	0.35	391.991	-3.4587645933532016	draw_card	0.35	columbia_card_task_fmri	16.0	0.75	89.0	-75.0	0.25	6.0	3.0	1.0	6.5553988301426855	0.35	n/a	stim	poldrack-single-stim	s631	False	1
391.995	1.871	393.866	-11.042097926686534	draw_card	1.871	columbia_card_task_fmri	16.0	0.6666666666666667	89.0	-75.0	0.3333333333333333	6.0	4.0	1.0	10.037913850910565	1.871	n/a	stim	poldrack-single-stim	s631	False	1
393.871	1.209	395.08	-26.2087645933532	end_round	1.209	columbia_card_task_fmri	16.0	0.5	71.0	-75.0	0.5	6.0	5.0	1.0	12.632911695725577	1.209	4.0	stim	poldrack-single-stim	s631	False	1
395.834	1.5	395.083	n/a	-1.0	2.59	columbia_card_task_fmri	n/a	n/a	-1.0	n/a	n/a	n/a	n/a	n/a	n/a	n/a	n/a	ITI	poldrack-single-stim	s631	False	0
397.679	0.678	398.357	5.291235406646798	draw_card	0.678	columbia_card_task_fmri	21.0	0.75	89.0	-55.0	0.25	8.0	1.0	2.0	0.0871660711926125	0.678	n/a	stim	poldrack-single-stim	s631	False	1
398.362	0.297	398.659	2.576949692361085	draw_card	0.297	columbia_card_task_fmri	21.0	0.7142857142857143	89.0	-55.0	0.2857142857142857	8.0	2.0	2.0	1.5047221362049117	0.297	n/a	stim	poldrack-single-stim	s631	False	1
398.664	0.34	399.004	-1.042097926686532	draw_card	0.34	columbia_card_task_fmri	21.0	0.6666666666666667	89.0	-55.0	0.3333333333333333	8.0	3.0	2.0	2.991632669445337	0.34	3.0	stim	poldrack-single-stim	s631	False	0
399.759	1.5	399.008	n/a	-1.0	2.658	columbia_card_task_fmri	n/a	n/a	-1.0	n/a	n/a	n/a	n/a	n/a	n/a	n/a	n/a	ITI	poldrack-single-stim	s631	False	0
401.671	0.712	402.383	6.541235406646798	draw_card	0.712	columbia_card_task_fmri	26.0	0.75	89.0	-65.0	0.25	8.0	1.0	2.0	6.5553988301426855	0.712	n/a	stim	poldrack-single-stim	s631	False	1
402.387	0.384	402.771	3.291235406646802	draw_card	0.384	columbia_card_task_fmri	26.0	0.7142857142857143	89.0	-65.0	0.2857142857142857	8.0	2.0	2.0	8.255178796482866	0.384	n/a	stim	poldrack-single-stim	s631	False	1
402.774	0.449	403.223	-1.0420979266865302	draw_card	0.449	columbia_card_task_fmri	26.0	0.6666666666666667	89.0	-65.0	0.3333333333333333	8.0	3.0	2.0	10.037913850910565	0.449	n/a	stim	poldrack-single-stim	s631	False	1
403.227	2.387	405.614	-7.108764593353202	draw_card	2.387	columbia_card_task_fmri	26.0	0.6	89.0	-65.0	0.4	8.0	4.0	2.0	11.716069823948736	2.387	4.0	stim	poldrack-single-stim	s631	False	0
406.368	1.5	405.617	n/a	-1.0	2.386	columbia_card_task_fmri	n/a	n/a	-1.0	n/a	n/a	n/a	n/a	n/a	n/a	n/a	n/a	ITI	poldrack-single-stim	s631	False	0
408.008	0.446	408.454	1.6245687399801323	draw_card	0.446	columbia_card_task_fmri	15.0	0.7777777777777778	89.0	-60.0	0.2222222222222222	9.0	1.0	2.0	-1.6322693148384566	0.446	n/a	stim	poldrack-single-stim	s631	False	1
408.458	0.363	408.821	-0.4587645933532016	draw_card	0.363	columbia_card_task_fmri	15.0	0.75	89.0	-60.0	0.25	9.0	2.0	2.0	-0.3436687898691204	0.363	2.0	stim	poldrack-single-stim	s631	False	0
409.577	1.5	408.826	n/a	-1.0	2.386	columbia_card_task_fmri	n/a	n/a	-1.0	n/a	n/a	n/a	n/a	n/a	n/a	n/a	n/a	ITI	poldrack-single-stim	s631	False	0
411.217	0.281	411.498	5.991235406646799	draw_card	0.281	columbia_card_task_fmri	13.0	0.9	89.0	-90.0	0.1	10.0	1.0	1.0	-1.9111840217041127	0.281	n/a	stim	poldrack-single-stim	s631	False	1
411.503	0.687	412.19	4.846790962202354	draw_card	0.687	columbia_card_task_fmri	13.0	0.8888888888888888	89.0	-90.0	0.1111111111111111	10.0	2.0	1.0	-0.4493014994872908	0.687	n/a	stim	poldrack-single-stim	s631	False	1
412.195	0.494	412.689	3.4162354066467984	draw_card	0.494	columbia_card_task_fmri	13.0	0.875	89.0	-90.0	0.125	10.0	3.0	1.0	1.236708270811306	0.494	3.0	stim	poldrack-single-stim	s631	False	0
413.445	1.5	412.694	n/a	-1.0	2.25	columbia_card_task_fmri	n/a	n/a	-1.0	n/a	n/a	n/a	n/a	n/a	n/a	n/a	n/a	ITI	poldrack-single-stim	s631	False	0
414.95	0.417	415.367	7.291235406646798	draw_card	0.417	columbia_card_task_fmri	15.0	0.9	89.0	-95.0	0.1	10.0	1.0	1.0	0.177750084679829	0.417	1.0	stim	poldrack-single-stim	s631	False	0
416.122	1.5	415.371	n/a	-1.0	2.318	columbia_card_task_fmri	n/a	n/a	-1.0	n/a	n/a	n/a	n/a	n/a	n/a	n/a	n/a	ITI	poldrack-single-stim	s631	False	0
417.696	1.497	419.193	3.091235406646799	draw_card	1.497	columbia_card_task_fmri	16.0	0.8	89.0	-65.0	0.2	10.0	1.0	2.0	-0.4192334722707826	1.497	n/a	stim	poldrack-single-stim	s631	False	1
419.198	0.903	420.101	1.2912354066468	draw_card	0.903	columbia_card_task_fmri	16.0	0.7777777777777778	89.0	-65.0	0.2222222222222222	10.0	2.0	2.0	0.8494010171346034	0.903	n/a	stim	poldrack-single-stim	s631	False	1
420.106	0.434	420.54	-0.9587645933532016	draw_card	0.434	columbia_card_task_fmri	16.0	0.75	89.0	-65.0	0.25	10.0	3.0	2.0	2.2421414458264977	0.434	n/a	stim	poldrack-single-stim	s631	False	1
420.545	0.37	420.915	-3.851621736210342	draw_card	0.37	columbia_card_task_fmri	16.0	0.7142857142857143	89.0	-65.0	0.2857142857142857	10.0	4.0	2.0	3.7538167768042072	0.37	n/a	stim	poldrack-single-stim	s631	False	1
420.921	0.324	421.245	-7.708764593353198	draw_card	0.324	columbia_card_task_fmri	16.0	0.6666666666666667	89.0	-65.0	0.3333333333333333	10.0	5.0	2.0	5.339378600089525	0.324	n/a	stim	poldrack-single-stim	s631	False	1
421.25	1.487	422.737	-13.1087645933532	draw_card	1.487	columbia_card_task_fmri	16.0	0.6	89.0	-65.0	0.4	10.0	6.0	2.0	6.832020278140512	1.487	n/a	stim	poldrack-single-stim	s631	False	1
422.741	1.462	424.203	-21.2087645933532	end_round	1.462	columbia_card_task_fmri	16.0	0.5	71.0	-65.0	0.5	10.0	7.0	2.0	7.647542674063303	1.462	6.0	stim	poldrack-single-stim	s631	False	1
424.957	1.5	424.206	n/a	-1.0	2.25	columbia_card_task_fmri	n/a	n/a	-1.0	n/a	n/a	n/a	n/a	n/a	n/a	n/a	n/a	ITI	poldrack-single-stim	s631	False	0
426.461	1.444	427.905	1.7912354066467984	draw_card	1.444	columbia_card_task_fmri	7.0	0.9166666666666666	89.0	-95.0	0.0833333333333333	12.0	1.0	1.0	-4.603187974058727	1.444	n/a	stim	poldrack-single-stim	s631	False	1
427.911	0.192	428.103	1.018508133919525	draw_card	0.192	columbia_card_task_fmri	7.0	0.9090909090909092	89.0	-95.0	0.0909090909090909	12.0	2.0	1.0	-3.478902547539217	0.192	n/a	stim	poldrack-single-stim	s631	False	1
428.109	0.166	428.275	0.0912354066467981	draw_card	0.166	columbia_card_task_fmri	7.0	0.9	89.0	-95.0	0.1	12.0	3.0	1.0	-2.2094802277201104	0.166	n/a	stim	poldrack-single-stim	s631	False	1
428.28	0.179	428.459	-1.0420979266865356	draw_card	0.179	columbia_card_task_fmri	7.0	0.8888888888888888	89.0	-95.0	0.1111111111111111	12.0	4.0	1.0	-0.7619435198193258	0.179	n/a	stim	poldrack-single-stim	s631	False	1
428.463	0.389	428.852	-2.4587645933532016	draw_card	0.389	columbia_card_task_fmri	7.0	0.875	89.0	-95.0	0.125	12.0	5.0	1.0	0.9075372254453812	0.389	n/a	stim	poldrack-single-stim	s631	False	1
428.856	0.619	429.475	-4.280193164781773	draw_card	0.619	columbia_card_task_fmri	7.0	0.8571428571428572	89.0	-95.0	0.1428571428571428	12.0	6.0	1.0	2.8580186390745865	0.619	n/a	stim	poldrack-single-stim	s631	False	1
429.478	0.374	429.852	-6.7087645933532	draw_card	0.374	columbia_card_task_fmri	7.0	0.8333333333333334	89.0	-95.0	0.1666666666666666	12.0	7.0	1.0	5.16940111350327	0.374	n/a	stim	poldrack-single-stim	s631	False	1
429.857	0.889	430.746	-10.1087645933532	draw_card	0.889	columbia_card_task_fmri	7.0	0.8	89.0	-95.0	0.2	12.0	8.0	1.0	7.946564164513703	0.889	n/a	stim	poldrack-single-stim	s631	False	1
430.749	1.309	432.058	-15.208764593353202	draw_card	1.309	columbia_card_task_fmri	7.0	0.75	89.0	-95.0	0.25	12.0	9.0	1.0	11.303784607434435	1.309	n/a	stim	poldrack-single-stim	s631	False	1
432.062	1.86	433.922	-23.7087645933532	end_round	1.86	columbia_card_task_fmri	7.0	0.6666666666666667	71.0	-95.0	0.3333333333333333	12.0	10.0	1.0	15.209801338246493	1.86	9.0	stim	poldrack-single-stim	s631	False	1
434.676	1.5	433.925	n/a	-1.0	2.25	columbia_card_task_fmri	n/a	n/a	-1.0	n/a	n/a	n/a	n/a	n/a	n/a	n/a	n/a	ITI	poldrack-single-stim	s631	False	0
436.18	1.245	437.425	2.457902073313466	draw_card	1.245	columbia_card_task_fmri	14.0	0.8333333333333334	89.0	-75.0	0.1666666666666666	12.0	1.0	2.0	0.3452648893006369	1.245	n/a	stim	poldrack-single-stim	s631	False	1
437.429	0.375	437.804	1.109417224828615	draw_card	0.375	columbia_card_task_fmri	14.0	0.8181818181818181	89.0	-75.0	0.1818181818181818	12.0	2.0	2.0	1.4982715071501571	0.375	n/a	stim	poldrack-single-stim	s631	False	1
437.81	0.3	438.11	-0.5087645933532006	draw_card	0.3	columbia_card_task_fmri	14.0	0.8	89.0	-75.0	0.2	12.0	3.0	2.0	2.7658458644914745	0.3	n/a	stim	poldrack-single-stim	s631	False	1
438.116	0.377	438.493	-2.4865423711309766	draw_card	0.377	columbia_card_task_fmri	14.0	0.7777777777777778	89.0	-75.0	0.2222222222222222	12.0	4.0	2.0	4.160955447243737	0.377	n/a	stim	poldrack-single-stim	s631	False	1
438.498	1.656	440.154	-4.958764593353202	draw_card	1.656	columbia_card_task_fmri	14.0	0.75	89.0	-75.0	0.25	12.0	5.0	2.0	5.69244576869604	1.656	n/a	stim	poldrack-single-stim	s631	False	1
440.158	2.321	442.479	-8.137336021924629	draw_card	2.321	columbia_card_task_fmri	14.0	0.7142857142857143	89.0	-75.0	0.2857142857142857	12.0	6.0	2.0	7.354617050768162	2.321	n/a	stim	poldrack-single-stim	s631	False	1
442.483	4.719	447.202	-12.375431260019868	draw_card	4.719	columbia_card_task_fmri	14.0	0.6666666666666667	89.0	-75.0	0.3333333333333333	12.0	7.0	2.0	9.097929282274258	4.719	7.0	stim	poldrack-single-stim	s631	False	0
447.957	1.5	447.206	n/a	-1.0	2.386	columbia_card_task_fmri	n/a	n/a	-1.0	n/a	n/a	n/a	n/a	n/a	n/a	n/a	n/a	ITI	poldrack-single-stim	s631	False	0
449.598	1.981	451.579	4.124568739980132	draw_card	1.981	columbia_card_task_fmri	15.0	0.8333333333333334	89.0	-70.0	0.1666666666666666	12.0	1.0	2.0	-1.1378217314431147	1.981	1.0	stim	poldrack-single-stim	s631	False	0
452.334	1.5	451.583	n/a	-1.0	2.386	columbia_card_task_fmri	n/a	n/a	-1.0	n/a	n/a	n/a	n/a	n/a	n/a	n/a	n/a	ITI	poldrack-single-stim	s631	False	0
453.976	1.095	455.071	2.091235406646799	draw_card	1.095	columbia_card_task_fmri	16.0	0.8	89.0	-70.0	0.2	15.0	1.0	3.0	1.5711180432552825	1.095	n/a	stim	poldrack-single-stim	s631	False	1
455.078	0.282	455.36	0.8626639780753695	draw_card	0.282	columbia_card_task_fmri	16.0	0.7857142857142857	89.0	-70.0	0.2142857142857142	15.0	2.0	3.0	2.455209927269273	0.282	n/a	stim	poldrack-single-stim	s631	False	1
455.366	0.435	455.801	-0.5549184395070483	draw_card	0.435	columbia_card_task_fmri	16.0	0.7692307692307692	89.0	-70.0	0.2307692307692307	15.0	3.0	3.0	3.3971544917726177	0.435	3.0	stim	poldrack-single-stim	s631	False	0
456.557	1.5	455.806	n/a	-1.0	2.726	columbia_card_task_fmri	n/a	n/a	-1.0	n/a	n/a	n/a	n/a	n/a	n/a	n/a	n/a	ITI	poldrack-single-stim	s631	False	0
458.539	0.444	458.983	2.4787354066467984	draw_card	0.444	columbia_card_task_fmri	14.0	0.8125	89.0	-65.0	0.1875	16.0	1.0	3.0	-1.9761382179296163	0.444	n/a	stim	poldrack-single-stim	s631	False	1
458.989	0.502	459.491	1.4912354066467994	draw_card	0.502	columbia_card_task_fmri	14.0	0.8	89.0	-65.0	0.2	16.0	2.0	3.0	-1.2150347653796167	0.502	2.0	stim	poldrack-single-stim	s631	False	0
460.246	1.5	459.495	n/a	-1.0	2.454	columbia_card_task_fmri	n/a	n/a	-1.0	n/a	n/a	n/a	n/a	n/a	n/a	n/a	n/a	ITI	poldrack-single-stim	s631	False	0
461.954	1.497	463.451	2.2287354066467984	draw_card	1.497	columbia_card_task_fmri	16.0	0.8125	89.0	-75.0	0.1875	16.0	1.0	3.0	2.684619161312746	1.497	n/a	stim	poldrack-single-stim	s631	False	1
463.456	1.312	464.768	1.091235406646799	draw_card	1.312	columbia_card_task_fmri	16.0	0.8	89.0	-75.0	0.2	16.0	2.0	3.0	3.562522992122368	1.312	n/a	stim	poldrack-single-stim	s631	False	1
464.774	1.504	466.278	-0.2087645933531998	draw_card	1.504	columbia_card_task_fmri	16.0	0.7857142857142857	89.0	-75.0	0.2142857142857142	16.0	3.0	3.0	4.498458004160938	1.504	n/a	stim	poldrack-single-stim	s631	False	1
466.283	4.007	470.29	-1.7087645933532052	draw_card	4.007	columbia_card_task_fmri	16.0	0.7692307692307692	89.0	-75.0	0.2307692307692307	16.0	4.0	3.0	5.4956145020243525	4.007	n/a	stim	poldrack-single-stim	s631	False	1
470.296	0.768	471.064	-3.4587645933532016	end_round	0.768	columbia_card_task_fmri	16.0	0.75	71.0	-75.0	0.25	16.0	5.0	3.0	6.5553988301426855	0.768	4.0	stim	poldrack-single-stim	s631	False	1
471.82	1.5	471.069	n/a	-1.0	2.318	columbia_card_task_fmri	n/a	n/a	-1.0	n/a	n/a	n/a	n/a	n/a	n/a	n/a	n/a	ITI	poldrack-single-stim	s631	False	0
473.394	0.529	473.923	6.491235406646799	draw_card	0.529	columbia_card_task_fmri	16.0	0.8666666666666667	89.0	-80.0	0.1333333333333333	15.0	1.0	2.0	-0.1866967037336024	0.529	1.0	stim	poldrack-single-stim	s631	False	0
474.68	1.5	473.929	n/a	-1.0	2.318	columbia_card_task_fmri	n/a	n/a	-1.0	n/a	n/a	n/a	n/a	n/a	n/a	n/a	n/a	ITI	poldrack-single-stim	s631	False	0
476.254	0.467	476.721	7.357902073313467	draw_card	0.467	columbia_card_task_fmri	17.0	0.8666666666666667	89.0	-80.0	0.1333333333333333	15.0	1.0	2.0	0.151539743471929	0.467	n/a	stim	poldrack-single-stim	s631	False	1
476.727	0.582	477.309	6.434092549503944	draw_card	0.582	columbia_card_task_fmri	17.0	0.8571428571428572	89.0	-80.0	0.1428571428571428	15.0	2.0	2.0	1.1161528319570737	0.582	n/a	stim	poldrack-single-stim	s631	False	1
477.315	0.874	478.189	5.368158483569875	draw_card	0.874	columbia_card_task_fmri	17.0	0.8461538461538461	89.0	-80.0	0.1538461538461538	15.0	3.0	2.0	2.166164679110871	0.874	3.0	stim	poldrack-single-stim	s631	False	0
478.947	1.5	478.196	n/a	-1.0	2.59	columbia_card_task_fmri	n/a	n/a	-1.0	n/a	n/a	n/a	n/a	n/a	n/a	n/a	n/a	ITI	poldrack-single-stim	s631	False	0
480.792	0.265	481.057	3.2912354066467984	draw_card	0.265	columbia_card_task_fmri	1.0	0.9375	89.0	-15.0	0.0625	16.0	1.0	1.0	-27.90342676571028	0.265	n/a	stim	poldrack-single-stim	s631	False	1
481.063	0.588	481.651	3.224568739980132	draw_card	0.588	columbia_card_task_fmri	1.0	0.9333333333333332	89.0	-15.0	0.0666666666666666	16.0	2.0	1.0	-27.812853445286024	0.588	n/a	stim	poldrack-single-stim	s631	False	1
481.655	0.484	482.139	3.148378263789656	draw_card	0.484	columbia_card_task_fmri	1.0	0.9285714285714286	89.0	-15.0	0.0714285714285714	16.0	3.0	1.0	-27.71227697349456	0.484	n/a	stim	poldrack-single-stim	s631	False	1
482.145	0.459	482.604	3.0604661758775675	draw_card	0.459	columbia_card_task_fmri	1.0	0.9230769230769232	89.0	-15.0	0.0769230769230769	16.0	4.0	1.0	-27.59989894303808	0.459	n/a	stim	poldrack-single-stim	s631	False	1
482.608	0.526	483.134	2.957902073313465	draw_card	0.526	columbia_card_task_fmri	1.0	0.9166666666666666	89.0	-15.0	0.0833333333333333	16.0	5.0	1.0	-27.47345672817026	0.526	n/a	stim	poldrack-single-stim	s631	False	1
483.139	0.543	483.682	2.836689952101344	draw_card	0.543	columbia_card_task_fmri	1.0	0.9090909090909092	89.0	-15.0	0.0909090909090909	16.0	6.0	1.0	-27.33006403901437	0.543	n/a	stim	poldrack-single-stim	s631	False	1
483.686	3.659	487.345	2.6912354066467983	draw_card	3.659	columbia_card_task_fmri	1.0	0.9	89.0	-15.0	0.1	16.0	7.0	1.0	-27.16598306378753	3.659	n/a	stim	poldrack-single-stim	s631	False	1
487.35	0.607	487.957	2.5134576288690207	draw_card	0.607	columbia_card_task_fmri	1.0	0.8888888888888888	89.0	-15.0	0.1111111111111111	16.0	8.0	1.0	-26.976294540938728	0.607	n/a	stim	poldrack-single-stim	s631	False	1
487.962	2.783	490.745	2.2912354066467984	draw_card	2.783	columbia_card_task_fmri	1.0	0.875	89.0	-15.0	0.125	16.0	9.0	1.0	-26.75441729054893	2.783	n/a	stim	poldrack-single-stim	s631	False	1
490.751	1.448	492.199	2.005521120932513	draw_card	1.448	columbia_card_task_fmri	1.0	0.8571428571428572	89.0	-15.0	0.1428571428571428	16.0	10.0	1.0	-26.49141930468044	1.448	n/a	stim	poldrack-single-stim	s631	False	1
492.205	1.134	493.339	1.6245687399801318	draw_card	1.134	columbia_card_task_fmri	1.0	0.8333333333333334	89.0	-15.0	0.1666666666666666	16.0	11.0	1.0	-26.17511054896668	1.134	n/a	stim	poldrack-single-stim	s631	False	1
493.345	1.666	495.011	1.0912354066467982	draw_card	1.666	columbia_card_task_fmri	1.0	0.8	89.0	-15.0	0.2	16.0	12.0	1.0	-25.789286592899245	1.666	n/a	stim	poldrack-single-stim	s631	False	1
495.017	3.078	498.095	0.2912354066467983	end_round	3.078	columbia_card_task_fmri	1.0	0.75	71.0	-15.0	0.25	16.0	13.0	1.0	-25.315751392901984	3.078	12.0	stim	poldrack-single-stim	s631	False	1
498.852	1.5	498.101	n/a	-1.0	2.726	columbia_card_task_fmri	n/a	n/a	-1.0	n/a	n/a	n/a	n/a	n/a	n/a	n/a	n/a	ITI	poldrack-single-stim	s631	False	0
500.833	3.476	504.309	6.416235406646798	draw_card	3.476	columbia_card_task_fmri	10.0	0.9375	89.0	-100.0	0.0625	16.0	1.0	1.0	-6.156570344427799	3.476	n/a	stim	poldrack-single-stim	s631	False	1
504.316	0.271	504.587	5.957902073313465	draw_card	0.271	columbia_card_task_fmri	10.0	0.9333333333333332	89.0	-100.0	0.0666666666666666	16.0	2.0	1.0	-5.350463813532766	0.271	n/a	stim	poldrack-single-stim	s631	False	1
504.595	0.209	504.804	5.434092549503943	draw_card	0.209	columbia_card_task_fmri	10.0	0.9285714285714286	89.0	-100.0	0.0714285714285714	16.0	3.0	1.0	-4.4660938370330605	0.209	n/a	stim	poldrack-single-stim	s631	False	1
504.809	0.231	505.04	4.829696945108338	draw_card	0.231	columbia_card_task_fmri	10.0	0.9230769230769232	89.0	-100.0	0.0769230769230769	16.0	4.0	1.0	-3.490141201681148	0.231	n/a	stim	poldrack-single-stim	s631	False	1
505.047	0.213	505.26	4.124568739980132	draw_card	0.213	columbia_card_task_fmri	10.0	0.9166666666666666	89.0	-100.0	0.0833333333333333	16.0	5.0	1.0	-2.4059458392798945	0.213	5.0	stim	poldrack-single-stim	s631	False	0
506.018	1.5	505.267	n/a	-1.0	2.522	columbia_card_task_fmri	n/a	n/a	-1.0	n/a	n/a	n/a	n/a	n/a	n/a	n/a	n/a	ITI	poldrack-single-stim	s631	False	0
507.795	0.44	508.235	7.041235406646798	draw_card	0.44	columbia_card_task_fmri	15.0	0.875	89.0	-75.0	0.125	16.0	1.0	2.0	-3.0398547224621915	0.44	n/a	stim	poldrack-single-stim	s631	False	1
508.24	0.22	508.46	6.291235406646798	draw_card	0.22	columbia_card_task_fmri	15.0	0.8666666666666667	89.0	-75.0	0.1333333333333333	16.0	2.0	2.0	-2.215329404040265	0.22	n/a	stim	poldrack-single-stim	s631	False	1
508.465	0.245	508.71	5.434092549503943	draw_card	0.245	columbia_card_task_fmri	15.0	0.8571428571428572	89.0	-75.0	0.1428571428571428	16.0	3.0	2.0	-1.3210199754254075	0.245	3.0	stim	poldrack-single-stim	s631	False	0
509.464	1.5	508.713	n/a	-1.0	3.134	columbia_card_task_fmri	n/a	n/a	-1.0	n/a	n/a	n/a	n/a	n/a	n/a	n/a	n/a	ITI	poldrack-single-stim	s631	False	0
511.853	0.392	512.245	7.291235406646798	draw_card	0.392	columbia_card_task_fmri	16.0	0.875	89.0	-80.0	0.125	16.0	1.0	2.0	-1.066817033066826	0.392	n/a	stim	poldrack-single-stim	s631	False	1
512.249	0.246	512.495	6.491235406646799	draw_card	0.246	columbia_card_task_fmri	16.0	0.8666666666666667	89.0	-80.0	0.1333333333333333	16.0	2.0	2.0	-0.1866967037336024	0.246	n/a	stim	poldrack-single-stim	s631	False	1
512.5	0.242	512.742	5.576949692361087	draw_card	0.242	columbia_card_task_fmri	16.0	0.8571428571428572	89.0	-80.0	0.1428571428571428	16.0	3.0	2.0	0.7678761147953352	0.242	3.0	stim	poldrack-single-stim	s631	False	0
513.496	1.5	512.745	n/a	-1.0	2.386	columbia_card_task_fmri	n/a	n/a	-1.0	n/a	n/a	n/a	n/a	n/a	n/a	n/a	n/a	ITI	poldrack-single-stim	s631	False	0
515.136	0.515	515.651	4.478735406646798	draw_card	0.515	columbia_card_task_fmri	4.0	0.6875	89.0	-5.0	0.3125	16.0	1.0	5.0	-27.67234692617351	0.515	n/a	stim	poldrack-single-stim	s631	False	1
515.655	2.265	517.92	4.291235406646798	draw_card	2.265	columbia_card_task_fmri	4.0	0.6666666666666667	89.0	-5.0	0.3333333333333333	16.0	2.0	5.0	-27.61640329603783	2.265	n/a	stim	poldrack-single-stim	s631	False	1
517.925	0.855	518.78	4.076949692361084	draw_card	0.855	columbia_card_task_fmri	4.0	0.6428571428571428	89.0	-5.0	0.3571428571428571	16.0	3.0	5.0	-27.561102671716213	0.855	n/a	stim	poldrack-single-stim	s631	False	1
518.788	0.635	519.423	3.8296969451083367	draw_card	0.635	columbia_card_task_fmri	4.0	0.6153846153846154	89.0	-5.0	0.3846153846153846	16.0	4.0	5.0	-27.508393478853552	0.635	n/a	stim	poldrack-single-stim	s631	False	1
519.431	0.57	520.001	3.541235406646798	draw_card	0.57	columbia_card_task_fmri	4.0	0.5833333333333333	89.0	-5.0	0.4166666666666667	16.0	5.0	5.0	-27.461501966572893	0.57	5.0	stim	poldrack-single-stim	s631	False	0
520.757	1.5	520.006	n/a	-1.0	2.386	columbia_card_task_fmri	n/a	n/a	-1.0	n/a	n/a	n/a	n/a	n/a	n/a	n/a	n/a	ITI	poldrack-single-stim	s631	False	0
522.397	2.668	525.065	1.624568739980134	draw_card	2.668	columbia_card_task_fmri	14.0	0.8333333333333334	89.0	-80.0	0.1666666666666666	6.0	1.0	1.0	2.2000294619398915	2.668	n/a	stim	poldrack-single-stim	s631	False	1
525.069	0.599	525.668	-1.5087645933532006	draw_card	0.599	columbia_card_task_fmri	14.0	0.8	89.0	-80.0	0.2	6.0	2.0	1.0	4.7578022488899805	0.599	n/a	stim	poldrack-single-stim	s631	False	1
525.673	0.447	526.12	-6.208764593353202	draw_card	0.447	columbia_card_task_fmri	14.0	0.75	89.0	-80.0	0.25	6.0	3.0	1.0	7.850072325867082	0.447	n/a	stim	poldrack-single-stim	s631	False	1
526.127	1.657	527.784	-14.04209792668653	draw_card	1.657	columbia_card_task_fmri	14.0	0.6666666666666667	89.0	-80.0	0.3333333333333333	6.0	4.0	1.0	11.44811510563379	1.657	4.0	stim	poldrack-single-stim	s631	False	0
528.541	1.5	527.79	n/a	-1.0	2.318	columbia_card_task_fmri	n/a	n/a	-1.0	n/a	n/a	n/a	n/a	n/a	n/a	n/a	n/a	ITI	poldrack-single-stim	s631	False	0
530.116	0.526	530.642	3.2912354066467984	draw_card	0.526	columbia_card_task_fmri	15.0	0.8333333333333334	89.0	-75.0	0.1666666666666666	6.0	1.0	1.0	0.7161416766876911	0.526	n/a	stim	poldrack-single-stim	s631	False	1
530.646	0.3	530.946	0.2912354066467983	draw_card	0.3	columbia_card_task_fmri	15.0	0.8	89.0	-75.0	0.2	6.0	2.0	1.0	3.1641660827563958	0.3	2.0	stim	poldrack-single-stim	s631	False	0
531.701	1.5	530.95	n/a	-1.0	2.318	columbia_card_task_fmri	n/a	n/a	-1.0	n/a	n/a	n/a	n/a	n/a	n/a	n/a	n/a	ITI	poldrack-single-stim	s631	False	0
533.272	0.348	533.62	4.957902073313466	draw_card	0.348	columbia_card_task_fmri	16.0	0.8333333333333334	89.0	-70.0	0.1666666666666666	6.0	1.0	1.0	-0.7671160593869715	0.348	n/a	stim	poldrack-single-stim	s631	False	1
533.625	0.36	533.985	2.091235406646799	draw_card	0.36	columbia_card_task_fmri	16.0	0.8	89.0	-70.0	0.2	6.0	2.0	1.0	1.5711180432552825	0.36	n/a	stim	poldrack-single-stim	s631	False	1
533.99	0.599	534.589	-2.2087645933532016	draw_card	0.599	columbia_card_task_fmri	16.0	0.75	89.0	-70.0	0.25	6.0	3.0	1.0	4.398282600513696	0.599	n/a	stim	poldrack-single-stim	s631	False	1
534.593	1.799	536.392	-9.375431260019866	end_round	1.799	columbia_card_task_fmri	16.0	0.6666666666666667	71.0	-70.0	0.3333333333333333	6.0	4.0	1.0	7.68819757489468	1.799	3.0	stim	poldrack-single-stim	s631	False	1
537.147	1.5	536.396	n/a	-1.0	2.862	columbia_card_task_fmri	n/a	n/a	-1.0	n/a	n/a	n/a	n/a	n/a	n/a	n/a	n/a	ITI	poldrack-single-stim	s631	False	0
539.264	0.428	539.692	5.541235406646798	draw_card	0.428	columbia_card_task_fmri	23.0	0.75	89.0	-60.0	0.25	8.0	1.0	2.0	3.10446971224188	0.428	1.0	stim	poldrack-single-stim	s631	False	0
540.448	1.5	539.697	n/a	-1.0	2.726	columbia_card_task_fmri	n/a	n/a	-1.0	n/a	n/a	n/a	n/a	n/a	n/a	n/a	n/a	ITI	poldrack-single-stim	s631	False	0
542.431	0.353	542.784	6.041235406646798	draw_card	0.353	columbia_card_task_fmri	27.0	0.75	89.0	-70.0	0.25	8.0	1.0	2.0	9.14501452112698	0.353	n/a	stim	poldrack-single-stim	s631	False	1
542.79	0.815	543.605	2.576949692361083	draw_card	0.815	columbia_card_task_fmri	27.0	0.7142857142857143	89.0	-70.0	0.2857142857142857	8.0	2.0	2.0	10.95758975319103	0.815	n/a	stim	poldrack-single-stim	s631	False	1
543.611	0.357	543.968	-2.0420979266865302	draw_card	0.357	columbia_card_task_fmri	27.0	0.6666666666666667	89.0	-70.0	0.3333333333333333	8.0	3.0	2.0	12.858563553451177	0.357	3.0	stim	poldrack-single-stim	s631	False	0
544.726	1.5	543.975	n/a	-1.0	2.25	columbia_card_task_fmri	n/a	n/a	-1.0	n/a	n/a	n/a	n/a	n/a	n/a	n/a	n/a	ITI	poldrack-single-stim	s631	False	0
546.232	0.658	546.89	1.2912354066468	draw_card	0.658	columbia_card_task_fmri	16.0	0.7777777777777778	89.0	-65.0	0.2222222222222222	9.0	1.0	2.0	0.8494010171346034	0.658	n/a	stim	poldrack-single-stim	s631	False	1
546.895	0.29	547.185	-0.9587645933532016	draw_card	0.29	columbia_card_task_fmri	16.0	0.75	89.0	-65.0	0.25	9.0	2.0	2.0	2.2421414458264977	0.29	n/a	stim	poldrack-single-stim	s631	False	1
547.19	0.306	547.496	-3.851621736210342	draw_card	0.306	columbia_card_task_fmri	16.0	0.7142857142857143	89.0	-65.0	0.2857142857142857	9.0	3.0	2.0	3.7538167768042072	0.306	n/a	stim	poldrack-single-stim	s631	False	1
547.501	0.518	548.019	-7.708764593353198	draw_card	0.518	columbia_card_task_fmri	16.0	0.6666666666666667	89.0	-65.0	0.3333333333333333	9.0	4.0	2.0	5.339378600089525	0.518	n/a	stim	poldrack-single-stim	s631	False	1
548.024	0.712	548.736	-13.1087645933532	draw_card	0.712	columbia_card_task_fmri	16.0	0.6	89.0	-65.0	0.4	9.0	5.0	2.0	6.832020278140512	0.712	n/a	stim	poldrack-single-stim	s631	False	1
548.741	0.759	549.5	-21.2087645933532	end_round	0.759	columbia_card_task_fmri	16.0	0.5	71.0	-65.0	0.5	9.0	6.0	2.0	7.647542674063303	0.759	5.0	stim	poldrack-single-stim	s631	False	1
550.254	1.5	549.503	n/a	-1.0	2.318	columbia_card_task_fmri	n/a	n/a	-1.0	n/a	n/a	n/a	n/a	n/a	n/a	n/a	n/a	ITI	poldrack-single-stim	s631	False	0
551.827	0.95	552.777	6.491235406646799	draw_card	0.95	columbia_card_task_fmri	13.0	0.9	89.0	-85.0	0.1	10.0	1.0	1.0	-3.4023204764929997	0.95	n/a	stim	poldrack-single-stim	s631	False	1
552.781	0.209	552.99	5.402346517757909	draw_card	0.209	columbia_card_task_fmri	13.0	0.8888888888888888	89.0	-85.0	0.1111111111111111	10.0	2.0	1.0	-2.012182159781553	0.209	n/a	stim	poldrack-single-stim	s631	False	1
552.995	0.189	553.184	4.041235406646798	draw_card	0.189	columbia_card_task_fmri	13.0	0.875	89.0	-85.0	0.125	10.0	3.0	1.0	-0.4088334146939019	0.189	n/a	stim	poldrack-single-stim	s631	False	1
553.188	0.221	553.409	2.2912354066468	draw_card	0.221	columbia_card_task_fmri	13.0	0.8571428571428572	89.0	-85.0	0.1428571428571428	10.0	4.0	1.0	1.464462997420746	0.221	n/a	stim	poldrack-single-stim	s631	False	1
553.413	0.44	553.853	-0.0420979266865337	draw_card	0.44	columbia_card_task_fmri	13.0	0.8333333333333334	89.0	-85.0	0.1666666666666666	10.0	5.0	1.0	3.68447081067805	0.44	n/a	stim	poldrack-single-stim	s631	False	1
553.858	0.369	554.227	-3.3087645933532013	draw_card	0.369	columbia_card_task_fmri	13.0	0.8	89.0	-85.0	0.2	10.0	6.0	1.0	6.351955064140029	0.369	n/a	stim	poldrack-single-stim	s631	False	1
554.232	0.712	554.944	-8.208764593353202	draw_card	0.712	columbia_card_task_fmri	13.0	0.75	89.0	-85.0	0.25	10.0	7.0	1.0	9.576717391807762	0.712	n/a	stim	poldrack-single-stim	s631	False	1
554.949	0.746	555.695	-16.375431260019866	end_round	0.746	columbia_card_task_fmri	13.0	0.6666666666666667	71.0	-85.0	0.3333333333333333	10.0	8.0	1.0	13.32876406460936	0.746	7.0	stim	poldrack-single-stim	s631	False	1
556.45	1.5	555.699	n/a	-1.0	2.454	columbia_card_task_fmri	n/a	n/a	-1.0	n/a	n/a	n/a	n/a	n/a	n/a	n/a	n/a	ITI	poldrack-single-stim	s631	False	0
558.158	0.4	558.558	1.4912354066467994	draw_card	0.4	columbia_card_task_fmri	14.0	0.8	89.0	-65.0	0.2	10.0	1.0	2.0	-1.2150347653796167	0.4	n/a	stim	poldrack-single-stim	s631	False	1
558.564	0.275	558.839	-0.2643201489087552	draw_card	0.275	columbia_card_task_fmri	14.0	0.7777777777777778	89.0	-65.0	0.2222222222222222	10.0	2.0	2.0	0.0219637040805622	0.275	2.0	stim	poldrack-single-stim	s631	False	0
559.594	1.5	558.843	n/a	-1.0	2.522	columbia_card_task_fmri	n/a	n/a	-1.0	n/a	n/a	n/a	n/a	n/a	n/a	n/a	n/a	ITI	poldrack-single-stim	s631	False	0
561.371	0.291	561.662	2.8912354066468	draw_card	0.291	columbia_card_task_fmri	17.0	0.8	89.0	-70.0	0.2	10.0	1.0	2.0	1.969320518349953	0.291	n/a	stim	poldrack-single-stim	s631	False	1
561.666	0.431	562.097	0.9579020733134662	draw_card	0.431	columbia_card_task_fmri	17.0	0.7777777777777778	89.0	-70.0	0.2222222222222222	10.0	2.0	2.0	3.3328207498210887	0.431	n/a	stim	poldrack-single-stim	s631	False	1
562.101	0.583	562.684	-1.4587645933532016	draw_card	0.583	columbia_card_task_fmri	17.0	0.75	89.0	-70.0	0.25	10.0	3.0	2.0	4.8296331789957065	0.583	3.0	stim	poldrack-single-stim	s631	False	0
563.44	1.5	562.689	n/a	-1.0	2.318	columbia_card_task_fmri	n/a	n/a	-1.0	n/a	n/a	n/a	n/a	n/a	n/a	n/a	n/a	ITI	poldrack-single-stim	s631	False	0
565.012	0.36	565.372	1.6245687399801323	draw_card	0.36	columbia_card_task_fmri	13.0	0.8333333333333334	89.0	-75.0	0.1666666666666666	12.0	1.0	2.0	-0.0255712645260146	0.36	n/a	stim	poldrack-single-stim	s631	False	1
565.378	0.286	565.664	0.2912354066467966	draw_card	0.286	columbia_card_task_fmri	13.0	0.8181818181818181	89.0	-75.0	0.1818181818181818	12.0	2.0	2.0	1.1143574567989702	0.286	n/a	stim	poldrack-single-stim	s631	False	1
565.668	0.296	565.964	-1.3087645933532013	draw_card	0.296	columbia_card_task_fmri	13.0	0.8	89.0	-75.0	0.2	12.0	3.0	2.0	2.367563577498544	0.296	n/a	stim	poldrack-single-stim	s631	False	1
565.969	0.337	566.306	-3.264320148908755	draw_card	0.337	columbia_card_task_fmri	13.0	0.7777777777777778	89.0	-75.0	0.2222222222222222	12.0	4.0	2.0	3.746869208941604	0.337	n/a	stim	poldrack-single-stim	s631	False	1
566.311	0.437	566.748	-5.708764593353202	draw_card	0.437	columbia_card_task_fmri	13.0	0.75	89.0	-75.0	0.25	12.0	5.0	2.0	5.261021320673031	0.437	n/a	stim	poldrack-single-stim	s631	False	1
566.753	1.449	568.202	-8.851621736210342	draw_card	1.449	columbia_card_task_fmri	13.0	0.7142857142857143	89.0	-75.0	0.2857142857142857	12.0	6.0	2.0	6.904386143712152	1.449	n/a	stim	poldrack-single-stim	s631	False	1
568.207	4.083	572.29	-13.042097926686534	end_round	4.083	columbia_card_task_fmri	13.0	0.6666666666666667	71.0	-75.0	0.3333333333333333	12.0	7.0	2.0	8.627984919706861	4.083	6.0	stim	poldrack-single-stim	s631	False	1
573.045	1.5	572.294	n/a	-1.0	2.522	columbia_card_task_fmri	n/a	n/a	-1.0	n/a	n/a	n/a	n/a	n/a	n/a	n/a	n/a	ITI	poldrack-single-stim	s631	False	0
574.823	0.535	575.358	3.2912354066468	draw_card	0.535	columbia_card_task_fmri	14.0	0.8333333333333334	89.0	-70.0	0.1666666666666666	12.0	1.0	2.0	-1.5084808243473908	0.535	n/a	stim	poldrack-single-stim	s631	False	1
575.365	0.256	575.621	2.018508133919523	draw_card	0.256	columbia_card_task_fmri	14.0	0.8181818181818181	89.0	-70.0	0.1818181818181818	12.0	2.0	2.0	-0.4208779438797023	0.256	n/a	stim	poldrack-single-stim	s631	False	1
575.631	0.29	575.921	0.4912354066467994	draw_card	0.29	columbia_card_task_fmri	14.0	0.8	89.0	-70.0	0.2	12.0	3.0	2.0	0.774840589258389	0.29	n/a	stim	poldrack-single-stim	s631	False	1
575.928	0.296	576.224	-1.3754312600198677	draw_card	0.296	columbia_card_task_fmri	14.0	0.7777777777777778	89.0	-70.0	0.2222222222222222	12.0	4.0	2.0	2.0909154253350124	0.296	n/a	stim	poldrack-single-stim	s631	False	1
576.23	1.13	577.36	-3.7087645933532016	draw_card	1.13	columbia_card_task_fmri	14.0	0.75	89.0	-70.0	0.25	12.0	5.0	2.0	3.535699456842444	1.13	5.0	stim	poldrack-single-stim	s631	False	0
578.116	1.5	577.365	n/a	-1.0	2.998	columbia_card_task_fmri	n/a	n/a	-1.0	n/a	n/a	n/a	n/a	n/a	n/a	n/a	n/a	ITI	poldrack-single-stim	s631	False	0
580.37	1.054	581.424	3.2912354066468	draw_card	1.054	columbia_card_task_fmri	16.0	0.8333333333333334	89.0	-80.0	0.1666666666666666	12.0	1.0	2.0	2.942185228689219	1.054	1.0	stim	poldrack-single-stim	s631	False	0
582.179	1.5	581.428	n/a	-1.0	2.318	columbia_card_task_fmri	n/a	n/a	-1.0	n/a	n/a	n/a	n/a	n/a	n/a	n/a	n/a	ITI	poldrack-single-stim	s631	False	0
583.754	0.632	584.386	3.091235406646799	draw_card	0.632	columbia_card_task_fmri	16.0	0.8	89.0	-65.0	0.2	15.0	1.0	3.0	-0.4192334722707826	0.632	n/a	stim	poldrack-single-stim	s631	False	1
584.392	0.923	585.315	1.9340925495039425	draw_card	0.923	columbia_card_task_fmri	16.0	0.7857142857142857	89.0	-65.0	0.2142857142857142	15.0	2.0	3.0	0.4129894721907661	0.923	n/a	stim	poldrack-single-stim	s631	False	1
585.322	0.416	585.738	0.598927714339105	draw_card	0.416	columbia_card_task_fmri	16.0	0.7692307692307692	89.0	-65.0	0.2307692307692307	15.0	3.0	3.0	1.2996959469985967	0.416	n/a	stim	poldrack-single-stim	s631	False	1
585.744	0.339	586.083	-0.9587645933532016	draw_card	0.339	columbia_card_task_fmri	16.0	0.75	89.0	-65.0	0.25	15.0	4.0	3.0	2.2421414458264977	0.339	n/a	stim	poldrack-single-stim	s631	False	1
586.088	0.407	586.495	-2.799673684262292	draw_card	0.407	columbia_card_task_fmri	16.0	0.7272727272727273	89.0	-65.0	0.2727272727272727	15.0	5.0	3.0	3.2381616103548723	0.407	n/a	stim	poldrack-single-stim	s631	False	1
586.5	0.344	586.844	-5.008764593353202	draw_card	0.344	columbia_card_task_fmri	16.0	0.7	89.0	-65.0	0.3	15.0	6.0	3.0	4.278521706452025	0.344	n/a	stim	poldrack-single-stim	s631	False	1
586.849	1.449	588.298	-7.708764593353198	draw_card	1.449	columbia_card_task_fmri	16.0	0.6666666666666667	89.0	-65.0	0.3333333333333333	15.0	7.0	3.0	5.339378600089525	1.449	n/a	stim	poldrack-single-stim	s631	False	1
588.303	1.296	589.599	-11.083764593353202	end_round	1.296	columbia_card_task_fmri	16.0	0.625	71.0	-65.0	0.375	15.0	8.0	3.0	6.365862529039362	1.296	7.0	stim	poldrack-single-stim	s631	False	1
590.354	1.5	589.603	n/a	-1.0	2.25	columbia_card_task_fmri	n/a	n/a	-1.0	n/a	n/a	n/a	n/a	n/a	n/a	n/a	n/a	ITI	poldrack-single-stim	s631	False	0
591.859	0.617	592.476	1.4162354066467984	draw_card	0.617	columbia_card_task_fmri	15.0	0.8125	89.0	-75.0	0.1875	16.0	1.0	3.0	2.295990138304312	0.617	n/a	stim	poldrack-single-stim	s631	False	1
592.482	0.285	592.767	0.2912354066467983	draw_card	0.285	columbia_card_task_fmri	15.0	0.8	89.0	-75.0	0.2	16.0	2.0	3.0	3.1641660827563958	0.285	n/a	stim	poldrack-single-stim	s631	False	1
592.772	0.157	592.929	-0.9944788790674864	draw_card	0.157	columbia_card_task_fmri	15.0	0.7857142857142857	89.0	-75.0	0.2142857142857142	16.0	3.0	3.0	4.089734332874613	0.157	n/a	stim	poldrack-single-stim	s631	False	1
592.935	0.272	593.207	-2.4779953625839752	draw_card	0.272	columbia_card_task_fmri	15.0	0.7692307692307692	89.0	-75.0	0.2307692307692307	16.0	4.0	3.0	5.075850332376426	0.272	n/a	stim	poldrack-single-stim	s631	False	1
593.212	0.312	593.524	-4.208764593353202	draw_card	0.312	columbia_card_task_fmri	15.0	0.75	89.0	-75.0	0.25	16.0	5.0	3.0	6.1239053215693104	0.312	5.0	stim	poldrack-single-stim	s631	False	0
594.28	1.5	593.529	n/a	-1.0	2.454	columbia_card_task_fmri	n/a	n/a	-1.0	n/a	n/a	n/a	n/a	n/a	n/a	n/a	n/a	ITI	poldrack-single-stim	s631	False	0
595.99	0.385	596.375	1.9787354066467984	draw_card	0.385	columbia_card_task_fmri	14.0	0.6875	89.0	-35.0	0.3125	16.0	1.0	5.0	-10.036631381983243	0.385	n/a	stim	poldrack-single-stim	s631	False	1
596.38	0.166	596.546	0.9579020733134662	draw_card	0.166	columbia_card_task_fmri	14.0	0.6666666666666667	89.0	-35.0	0.3333333333333333	16.0	2.0	5.0	-9.653849308629002	0.166	2.0	stim	poldrack-single-stim	s631	False	0
597.301	1.5	596.55	n/a	-1.0	2.318	columbia_card_task_fmri	n/a	n/a	-1.0	n/a	n/a	n/a	n/a	n/a	n/a	n/a	n/a	ITI	poldrack-single-stim	s631	False	0
598.874	0.27	599.144	7.1579020733134655	draw_card	0.27	columbia_card_task_fmri	16.0	0.8666666666666667	89.0	-75.0	0.1333333333333333	15.0	1.0	2.0	-1.8773236254968104	0.27	1.0	stim	poldrack-single-stim	s631	False	0
599.9	1.5	599.149	n/a	-1.0	2.318	columbia_card_task_fmri	n/a	n/a	-1.0	n/a	n/a	n/a	n/a	n/a	n/a	n/a	n/a	ITI	poldrack-single-stim	s631	False	0
601.473	0.22	601.693	7.824568739980132	draw_card	0.22	columbia_card_task_fmri	16.0	0.8666666666666667	89.0	-70.0	0.1333333333333333	15.0	1.0	2.0	-3.566908024377668	0.22	n/a	stim	poldrack-single-stim	s631	False	1
601.699	0.378	602.077	7.005521120932514	draw_card	0.378	columbia_card_task_fmri	16.0	0.8571428571428572	89.0	-70.0	0.1428571428571428	15.0	2.0	2.0	-2.712797482792336	0.378	2.0	stim	poldrack-single-stim	s631	False	0
602.833	1.5	602.082	n/a	-1.0	2.59	columbia_card_task_fmri	n/a	n/a	-1.0	n/a	n/a	n/a	n/a	n/a	n/a	n/a	n/a	ITI	poldrack-single-stim	s631	False	0
604.678	0.281	604.959	5.166235406646798	draw_card	0.281	columbia_card_task_fmri	8.0	0.9375	89.0	-90.0	0.0625	16.0	1.0	1.0	-9.0367178770219	0.281	n/a	stim	poldrack-single-stim	s631	False	1
604.965	0.188	605.153	4.757902073313465	draw_card	0.188	columbia_card_task_fmri	8.0	0.9333333333333332	89.0	-90.0	0.0666666666666666	16.0	2.0	1.0	-8.31990978318321	0.188	n/a	stim	poldrack-single-stim	s631	False	1
605.159	0.211	605.37	4.291235406646799	draw_card	0.211	columbia_card_task_fmri	8.0	0.9285714285714286	89.0	-90.0	0.0714285714285714	16.0	3.0	1.0	-7.533419896845231	0.211	n/a	stim	poldrack-single-stim	s631	False	1
605.376	0.213	605.589	3.75277386818526	draw_card	0.213	columbia_card_task_fmri	8.0	0.9230769230769232	89.0	-90.0	0.0769230769230769	16.0	4.0	1.0	-6.665386082532351	0.213	n/a	stim	poldrack-single-stim	s631	False	1
605.594	0.244	605.838	3.1245687399801314	draw_card	0.244	columbia_card_task_fmri	8.0	0.9166666666666666	89.0	-90.0	0.0833333333333333	16.0	5.0	1.0	-5.700970437379354	0.244	n/a	stim	poldrack-single-stim	s631	False	1
605.844	0.234	606.078	2.382144497555889	draw_card	0.234	columbia_card_task_fmri	8.0	0.9090909090909092	89.0	-90.0	0.0909090909090909	16.0	6.0	1.0	-4.62135606393295	0.234	n/a	stim	poldrack-single-stim	s631	False	1
606.083	0.278	606.361	1.4912354066467983	draw_card	0.278	columbia_card_task_fmri	8.0	0.9	89.0	-90.0	0.1	16.0	7.0	1.0	-3.4023204764929997	0.278	7.0	stim	poldrack-single-stim	s631	False	0
607.117	1.5	606.366	n/a	-1.0	2.25	columbia_card_task_fmri	n/a	n/a	-1.0	n/a	n/a	n/a	n/a	n/a	n/a	n/a	n/a	ITI	poldrack-single-stim	s631	False	0
608.623	0.363	608.986	6.728735406646798	draw_card	0.363	columbia_card_task_fmri	10.0	0.9375	89.0	-95.0	0.0625	16.0	1.0	1.0	-7.357306339340461	0.363	n/a	stim	poldrack-single-stim	s631	False	1
608.991	0.188	609.179	6.291235406646799	draw_card	0.188	columbia_card_task_fmri	10.0	0.9333333333333332	89.0	-95.0	0.0666666666666666	16.0	2.0	1.0	-6.588388489854758	0.188	n/a	stim	poldrack-single-stim	s631	False	1
609.185	0.185	609.37	5.791235406646799	draw_card	0.185	columbia_card_task_fmri	10.0	0.9285714285714286	89.0	-95.0	0.0714285714285714	16.0	3.0	1.0	-5.744782211798341	0.185	n/a	stim	poldrack-single-stim	s631	False	1
609.376	0.187	609.563	5.214312329723722	draw_card	0.187	columbia_card_task_fmri	10.0	0.9230769230769232	89.0	-95.0	0.0769230769230769	16.0	4.0	1.0	-4.813775346625892	0.187	n/a	stim	poldrack-single-stim	s631	False	1
609.569	0.181	609.75	4.541235406646798	draw_card	0.181	columbia_card_task_fmri	10.0	0.9166666666666666	89.0	-95.0	0.0833333333333333	16.0	5.0	1.0	-3.77946699125506	0.181	n/a	stim	poldrack-single-stim	s631	False	1
609.755	2.129	611.884	3.745780861192252	draw_card	2.129	columbia_card_task_fmri	10.0	0.9090909090909092	89.0	-95.0	0.0909090909090909	16.0	6.0	1.0	-2.621692530221189	2.129	n/a	stim	poldrack-single-stim	s631	False	1
611.89	0.679	612.569	2.7912354066467984	draw_card	0.679	columbia_card_task_fmri	10.0	0.9	89.0	-95.0	0.1	16.0	7.0	1.0	-1.3144950519576175	0.679	n/a	stim	poldrack-single-stim	s631	False	1
612.574	0.514	613.088	1.6245687399801323	draw_card	0.514	columbia_card_task_fmri	10.0	0.8888888888888888	89.0	-95.0	0.1111111111111111	16.0	8.0	1.0	0.1760748515899948	0.514	n/a	stim	poldrack-single-stim	s631	False	1
613.093	0.35	613.443	0.1662354066467983	draw_card	0.35	columbia_card_task_fmri	10.0	0.875	89.0	-95.0	0.125	16.0	9.0	1.0	1.895138210606035	0.35	n/a	stim	poldrack-single-stim	s631	False	1
613.449	0.383	613.832	-1.7087645933532	draw_card	0.383	columbia_card_task_fmri	10.0	0.8571428571428572	89.0	-95.0	0.1428571428571428	16.0	10.0	1.0	3.903491110413391	0.383	n/a	stim	poldrack-single-stim	s631	False	1
613.84	0.48	614.32	-4.2087645933532	draw_card	0.48	columbia_card_task_fmri	10.0	0.8333333333333334	89.0	-95.0	0.1666666666666666	16.0	11.0	1.0	6.283386350040622	0.48	n/a	stim	poldrack-single-stim	s631	False	1
614.325	0.855	615.18	-7.708764593353202	draw_card	0.855	columbia_card_task_fmri	10.0	0.8	89.0	-95.0	0.2	16.0	12.0	1.0	9.142789259118643	0.855	n/a	stim	poldrack-single-stim	s631	False	1
615.187	0.782	615.969	-12.958764593353202	draw_card	0.782	columbia_card_task_fmri	10.0	0.75	89.0	-95.0	0.25	16.0	13.0	1.0	12.599333191577102	0.782	n/a	stim	poldrack-single-stim	s631	False	1
615.974	2.735	618.709	-21.7087645933532	draw_card	2.735	columbia_card_task_fmri	10.0	0.6666666666666667	89.0	-95.0	0.3333333333333333	16.0	14.0	1.0	16.620807552222473	2.735	n/a	stim	poldrack-single-stim	s631	False	1
618.714	0.614	619.328	-39.2087645933532	end_round	0.614	columbia_card_task_fmri	10.0	0.5	71.0	-95.0	0.5	16.0	15.0	1.0	19.61709443632409	0.614	14.0	stim	poldrack-single-stim	s631	False	1
620.084	1.5	619.333	n/a	-1.0	2.25	columbia_card_task_fmri	n/a	n/a	-1.0	n/a	n/a	n/a	n/a	n/a	n/a	n/a	n/a	ITI	poldrack-single-stim	s631	False	0
621.588	0.785	622.373	7.666235406646798	draw_card	0.785	columbia_card_task_fmri	15.0	0.875	89.0	-70.0	0.125	16.0	1.0	2.0	-4.682848435525077	0.785	n/a	stim	poldrack-single-stim	s631	False	1
622.38	0.391	622.771	6.957902073313464	draw_card	0.391	columbia_card_task_fmri	15.0	0.8666666666666667	89.0	-70.0	0.1333333333333333	16.0	2.0	2.0	-3.904683809159213	0.391	n/a	stim	poldrack-single-stim	s631	False	1
622.778	0.245	623.023	6.148378263789656	draw_card	0.245	columbia_card_task_fmri	15.0	0.8571428571428572	89.0	-70.0	0.1428571428571428	16.0	3.0	2.0	-3.060626264223533	0.245	3.0	stim	poldrack-single-stim	s631	False	0
623.78	1.5	623.029	n/a	-1.0	2.522	columbia_card_task_fmri	n/a	n/a	-1.0	n/a	n/a	n/a	n/a	n/a	n/a	n/a	n/a	ITI	poldrack-single-stim	s631	False	0
625.558	0.443	626.001	6.666235406646798	draw_card	0.443	columbia_card_task_fmri	16.0	0.875	89.0	-85.0	0.125	16.0	1.0	2.0	0.578396611858885	0.443	n/a	stim	poldrack-single-stim	s631	False	1
626.006	0.222	626.228	5.824568739980132	draw_card	0.222	columbia_card_task_fmri	16.0	0.8666666666666667	89.0	-85.0	0.1333333333333333	16.0	2.0	2.0	1.5048194379484985	0.222	n/a	stim	poldrack-single-stim	s631	False	1
626.233	0.178	626.411	4.862663978075371	draw_card	0.178	columbia_card_task_fmri	16.0	0.8571428571428572	89.0	-85.0	0.1428571428571428	16.0	3.0	2.0	2.509584336523808	0.178	n/a	stim	poldrack-single-stim	s631	False	1
626.415	0.214	626.629	3.752773868185258	draw_card	0.214	columbia_card_task_fmri	16.0	0.8461538461538461	89.0	-85.0	0.1538461538461538	16.0	4.0	2.0	3.603279357149759	0.214	n/a	stim	poldrack-single-stim	s631	False	1
626.635	0.265	626.9	2.457902073313466	draw_card	0.265	columbia_card_task_fmri	16.0	0.8333333333333334	89.0	-85.0	0.1666666666666666	16.0	5.0	2.0	4.798125850667589	0.265	n/a	stim	poldrack-single-stim	s631	False	1
626.904	0.271	627.175	0.9275990430104332	draw_card	0.271	columbia_card_task_fmri	16.0	0.8181818181818181	89.0	-85.0	0.1818181818181818	16.0	6.0	2.0	6.107974286198278	0.271	n/a	stim	poldrack-single-stim	s631	False	1
627.181	0.285	627.466	-0.9087645933532008	draw_card	0.285	columbia_card_task_fmri	16.0	0.8	89.0	-85.0	0.2	16.0	7.0	2.0	7.547872057405151	0.285	7.0	stim	poldrack-single-stim	s631	False	0
628.221	1.5	627.47	n/a	-1.0	2.454	columbia_card_task_fmri	n/a	n/a	-1.0	n/a	n/a	n/a	n/a	n/a	n/a	n/a	n/a	ITI	poldrack-single-stim	s631	False	0
