duration	onset	block_duration	movement_onset	planning	condition	exp_stage	experiment_exp_id	key_press	problem_id	response_time	trial_id	trial_type	worker_id	junk
8.766	3.005	8.766	11.771	1	UA_with_intermediate	practice	ward_and_allport	71	0.0	8.766	to_hand	poldrack-single-stim	s631	False
0.1	11.773	0.19	11.963	0	UA_with_intermediate	practice	ward_and_allport	82	0.0	0.19	to_board	poldrack-single-stim	s631	False
0.1	11.965	0.342	12.307	0	UA_with_intermediate	practice	ward_and_allport	71	0.0	0.342	to_hand	poldrack-single-stim	s631	False
0.1	12.308	0.439	12.747	0	UA_with_intermediate	practice	ward_and_allport	89	0.0	0.439	to_board	poldrack-single-stim	s631	False
0.1	12.749	0.454	13.203	0	UA_with_intermediate	practice	ward_and_allport	82	0.0	0.454	to_hand	poldrack-single-stim	s631	False
0.1	13.204	0.272	13.476	0	UA_with_intermediate	practice	ward_and_allport	89	0.0	0.272	to_board	poldrack-single-stim	s631	False
1.0	13.48	2.5	13.479	0	UA_with_intermediate	practice	ward_and_allport	-1	0.0	n/a	feedback	poldrack-single-stim	s631	False
4.937	15.982	4.937	20.919	1	UA_with_intermediate	practice	ward_and_allport	89	1.0	4.937	to_hand	poldrack-single-stim	s631	False
0.1	20.921	0.177	21.098	0	UA_with_intermediate	practice	ward_and_allport	82	1.0	0.177	to_board	poldrack-single-stim	s631	False
0.1	21.1	0.311	21.411	0	UA_with_intermediate	practice	ward_and_allport	71	1.0	0.311	to_hand	poldrack-single-stim	s631	False
0.1	21.414	0.327	21.741	0	UA_with_intermediate	practice	ward_and_allport	89	1.0	0.327	to_board	poldrack-single-stim	s631	False
0.1	21.742	0.322	22.064	0	UA_with_intermediate	practice	ward_and_allport	82	1.0	0.322	to_hand	poldrack-single-stim	s631	False
0.1	22.066	0.214	22.28	0	UA_with_intermediate	practice	ward_and_allport	89	1.0	0.214	to_board	poldrack-single-stim	s631	False
1.0	22.282	2.1	22.281	0	UA_with_intermediate	practice	ward_and_allport	-1	1.0	n/a	feedback	poldrack-single-stim	s631	False
4.479	24.383	4.479	28.862	1	UA_without_intermediate	practice	ward_and_allport	82	2.0	4.479	to_hand	poldrack-single-stim	s631	False
0.1	28.863	0.196	29.059	0	UA_without_intermediate	practice	ward_and_allport	89	2.0	0.196	to_board	poldrack-single-stim	s631	False
0.1	29.06	0.207	29.267	0	UA_without_intermediate	practice	ward_and_allport	71	2.0	0.207	to_hand	poldrack-single-stim	s631	False
0.1	29.268	0.203	29.471	0	UA_without_intermediate	practice	ward_and_allport	89	2.0	0.203	to_board	poldrack-single-stim	s631	False
0.1	29.472	0.209	29.681	0	UA_without_intermediate	practice	ward_and_allport	71	2.0	0.209	to_hand	poldrack-single-stim	s631	False
0.1	29.682	0.198	29.88	0	UA_without_intermediate	practice	ward_and_allport	89	2.0	0.198	to_board	poldrack-single-stim	s631	False
1.0	29.882	2.2	29.881	0	UA_without_intermediate	practice	ward_and_allport	-1	2.0	n/a	feedback	poldrack-single-stim	s631	False
5.408	32.084	5.408	37.492	1	UA_without_intermediate	practice	ward_and_allport	71	3.0	5.408	to_hand	poldrack-single-stim	s631	False
0.1	37.493	0.211	37.704	0	UA_without_intermediate	practice	ward_and_allport	89	3.0	0.211	to_board	poldrack-single-stim	s631	False
0.1	37.706	0.225	37.931	0	UA_without_intermediate	practice	ward_and_allport	82	3.0	0.225	to_hand	poldrack-single-stim	s631	False
0.1	37.933	0.346	38.279	0	UA_without_intermediate	practice	ward_and_allport	89	3.0	0.346	to_board	poldrack-single-stim	s631	False
0.1	38.281	0.275	38.556	0	UA_without_intermediate	practice	ward_and_allport	71	3.0	0.275	to_hand	poldrack-single-stim	s631	False
0.1	38.556	0.258	38.814	0	UA_without_intermediate	practice	ward_and_allport	89	3.0	0.258	to_board	poldrack-single-stim	s631	False
1.0	38.817	2.0	38.816	0	UA_without_intermediate	practice	ward_and_allport	-1	3.0	n/a	feedback	poldrack-single-stim	s631	False
5.141	42.82	5.141	47.961	1	PA_without_intermediate	test	ward_and_allport	71	0.0	5.141	to_hand	poldrack-single-stim	s631	False
0.1	47.962	0.168	48.13	0	PA_without_intermediate	test	ward_and_allport	82	0.0	0.168	to_board	poldrack-single-stim	s631	False
0.1	48.132	0.207	48.339	0	PA_without_intermediate	test	ward_and_allport	71	0.0	0.207	to_hand	poldrack-single-stim	s631	False
0.1	48.34	0.267	48.607	0	PA_without_intermediate	test	ward_and_allport	89	0.0	0.267	to_board	poldrack-single-stim	s631	False
0.1	48.609	0.237	48.846	0	PA_without_intermediate	test	ward_and_allport	71	0.0	0.237	to_hand	poldrack-single-stim	s631	False
0.1	48.847	0.228	49.075	0	PA_without_intermediate	test	ward_and_allport	82	0.0	0.228	to_board	poldrack-single-stim	s631	False
1.0	49.077	3.088	49.076	0	PA_without_intermediate	test	ward_and_allport	-1	0.0	n/a	feedback	poldrack-single-stim	s631	False
6.416	52.167	6.416	58.583	1	PA_with_intermediate	test	ward_and_allport	82	1.0	6.416	to_hand	poldrack-single-stim	s631	False
0.1	58.584	0.196	58.78	0	PA_with_intermediate	test	ward_and_allport	89	1.0	0.196	to_board	poldrack-single-stim	s631	False
0.1	58.782	0.25	59.032	0	PA_with_intermediate	test	ward_and_allport	82	1.0	0.25	to_hand	poldrack-single-stim	s631	False
0.1	59.034	0.243	59.277	0	PA_with_intermediate	test	ward_and_allport	71	1.0	0.243	to_board	poldrack-single-stim	s631	False
0.1	59.28	0.324	59.604	0	PA_with_intermediate	test	ward_and_allport	89	1.0	0.324	to_hand	poldrack-single-stim	s631	False
0.1	59.605	0.198	59.803	0	PA_with_intermediate	test	ward_and_allport	71	1.0	0.198	to_board	poldrack-single-stim	s631	False
1.0	59.806	2.0	59.805	0	PA_with_intermediate	test	ward_and_allport	-1	1.0	n/a	feedback	poldrack-single-stim	s631	False
4.902	61.808	4.902	66.71	1	PA_without_intermediate	test	ward_and_allport	82	2.0	4.902	to_hand	poldrack-single-stim	s631	False
0.1	66.711	0.227	66.938	0	PA_without_intermediate	test	ward_and_allport	71	2.0	0.227	to_board	poldrack-single-stim	s631	False
0.1	66.94	0.493	67.433	0	PA_without_intermediate	test	ward_and_allport	82	2.0	0.493	to_hand	poldrack-single-stim	s631	False
0.1	67.434	0.361	67.795	0	PA_without_intermediate	test	ward_and_allport	89	2.0	0.361	to_board	poldrack-single-stim	s631	False
0.1	67.797	0.544	68.341	0	PA_without_intermediate	test	ward_and_allport	82	2.0	0.544	to_hand	poldrack-single-stim	s631	False
0.1	68.342	0.406	68.748	0	PA_without_intermediate	test	ward_and_allport	71	2.0	0.406	to_board	poldrack-single-stim	s631	False
1.0	68.751	2.0	68.75	0	PA_without_intermediate	test	ward_and_allport	-1	2.0	n/a	feedback	poldrack-single-stim	s631	False
6.454	70.754	6.454	77.208	1	PA_without_intermediate	test	ward_and_allport	71	3.0	6.454	to_hand	poldrack-single-stim	s631	False
0.1	77.209	0.202	77.411	0	PA_without_intermediate	test	ward_and_allport	89	3.0	0.202	to_board	poldrack-single-stim	s631	False
0.1	77.413	0.225	77.638	0	PA_without_intermediate	test	ward_and_allport	71	3.0	0.225	to_hand	poldrack-single-stim	s631	False
0.1	77.639	0.247	77.886	0	PA_without_intermediate	test	ward_and_allport	82	3.0	0.247	to_board	poldrack-single-stim	s631	False
0.1	77.889	0.28	78.169	0	PA_without_intermediate	test	ward_and_allport	71	3.0	0.28	to_hand	poldrack-single-stim	s631	False
0.1	78.17	0.257	78.427	0	PA_without_intermediate	test	ward_and_allport	89	3.0	0.257	to_board	poldrack-single-stim	s631	False
1.0	78.429	2.0	78.428	0	PA_without_intermediate	test	ward_and_allport	-1	3.0	n/a	feedback	poldrack-single-stim	s631	False
5.18	80.433	5.18	85.613	1	PA_with_intermediate	test	ward_and_allport	71	4.0	5.18	to_hand	poldrack-single-stim	s631	False
0.1	85.614	0.223	85.837	0	PA_with_intermediate	test	ward_and_allport	89	4.0	0.223	to_board	poldrack-single-stim	s631	False
0.1	85.84	0.203	86.043	0	PA_with_intermediate	test	ward_and_allport	71	4.0	0.203	to_hand	poldrack-single-stim	s631	False
0.1	86.044	0.232	86.276	0	PA_with_intermediate	test	ward_and_allport	82	4.0	0.232	to_board	poldrack-single-stim	s631	False
0.1	86.279	0.281	86.56	0	PA_with_intermediate	test	ward_and_allport	89	4.0	0.281	to_hand	poldrack-single-stim	s631	False
0.1	86.562	0.206	86.768	0	PA_with_intermediate	test	ward_and_allport	82	4.0	0.206	to_board	poldrack-single-stim	s631	False
1.0	86.771	2.544	86.77	0	PA_with_intermediate	test	ward_and_allport	-1	4.0	n/a	feedback	poldrack-single-stim	s631	False
5.819	89.317	5.819	95.136	1	PA_without_intermediate	test	ward_and_allport	82	5.0	5.819	to_hand	poldrack-single-stim	s631	False
0.1	95.137	0.2	95.337	0	PA_without_intermediate	test	ward_and_allport	71	5.0	0.2	to_board	poldrack-single-stim	s631	False
0.1	95.34	0.21	95.55	0	PA_without_intermediate	test	ward_and_allport	82	5.0	0.21	to_hand	poldrack-single-stim	s631	False
0.1	95.551	0.198	95.749	0	PA_without_intermediate	test	ward_and_allport	71	5.0	0.198	to_board	poldrack-single-stim	s631	False
0.1	95.751	0.275	96.026	0	PA_without_intermediate	test	ward_and_allport	82	5.0	0.275	to_hand	poldrack-single-stim	s631	False
0.1	96.027	0.249	96.276	0	PA_without_intermediate	test	ward_and_allport	89	5.0	0.249	to_board	poldrack-single-stim	s631	False
1.0	96.281	2.272	96.28	0	PA_without_intermediate	test	ward_and_allport	-1	5.0	n/a	feedback	poldrack-single-stim	s631	False
4.329	98.556	4.329	102.885	1	PA_with_intermediate	test	ward_and_allport	82	6.0	4.329	to_hand	poldrack-single-stim	s631	False
0.1	102.886	0.21	103.096	0	PA_with_intermediate	test	ward_and_allport	89	6.0	0.21	to_board	poldrack-single-stim	s631	False
0.1	103.098	0.299	103.397	0	PA_with_intermediate	test	ward_and_allport	82	6.0	0.299	to_hand	poldrack-single-stim	s631	False
0.1	103.399	0.563	103.962	0	PA_with_intermediate	test	ward_and_allport	71	6.0	0.563	to_board	poldrack-single-stim	s631	False
0.1	103.965	0.407	104.372	0	PA_with_intermediate	test	ward_and_allport	89	6.0	0.407	to_hand	poldrack-single-stim	s631	False
0.1	104.374	0.137	104.511	0	PA_with_intermediate	test	ward_and_allport	71	6.0	0.137	to_board	poldrack-single-stim	s631	False
1.0	104.514	4.04	104.513	0	PA_with_intermediate	test	ward_and_allport	-1	6.0	n/a	feedback	poldrack-single-stim	s631	False
4.414	108.557	4.414	112.971	1	PA_with_intermediate	test	ward_and_allport	89	7.0	4.414	to_hand	poldrack-single-stim	s631	False
0.1	112.972	0.18	113.152	0	PA_with_intermediate	test	ward_and_allport	71	7.0	0.18	to_board	poldrack-single-stim	s631	False
0.1	113.156	0.229	113.385	0	PA_with_intermediate	test	ward_and_allport	89	7.0	0.229	to_hand	poldrack-single-stim	s631	False
0.1	113.386	0.235	113.621	0	PA_with_intermediate	test	ward_and_allport	82	7.0	0.235	to_board	poldrack-single-stim	s631	False
0.1	113.624	0.296	113.92	0	PA_with_intermediate	test	ward_and_allport	71	7.0	0.296	to_hand	poldrack-single-stim	s631	False
0.1	113.921	0.265	114.186	0	PA_with_intermediate	test	ward_and_allport	82	7.0	0.265	to_board	poldrack-single-stim	s631	False
1.0	114.19	2.272	114.189	0	PA_with_intermediate	test	ward_and_allport	-1	7.0	n/a	feedback	poldrack-single-stim	s631	False
3.979	116.465	3.979	120.444	1	PA_with_intermediate	test	ward_and_allport	82	8.0	3.979	to_hand	poldrack-single-stim	s631	False
0.1	120.446	0.239	120.685	0	PA_with_intermediate	test	ward_and_allport	89	8.0	0.239	to_board	poldrack-single-stim	s631	False
0.1	120.688	0.547	121.235	0	PA_with_intermediate	test	ward_and_allport	82	8.0	0.547	to_hand	poldrack-single-stim	s631	False
0.1	121.237	0.206	121.443	0	PA_with_intermediate	test	ward_and_allport	71	8.0	0.206	to_board	poldrack-single-stim	s631	False
0.1	121.446	0.334	121.78	0	PA_with_intermediate	test	ward_and_allport	89	8.0	0.334	to_hand	poldrack-single-stim	s631	False
0.1	121.782	0.168	121.95	0	PA_with_intermediate	test	ward_and_allport	82	8.0	0.168	to_board	poldrack-single-stim	s631	False
1.0	121.953	2.136	121.952	0	PA_with_intermediate	test	ward_and_allport	-1	8.0	n/a	feedback	poldrack-single-stim	s631	False
5.639	124.093	5.639	129.732	1	PA_with_intermediate	test	ward_and_allport	71	9.0	5.639	to_hand	poldrack-single-stim	s631	False
0.1	129.733	0.176	129.909	0	PA_with_intermediate	test	ward_and_allport	82	9.0	0.176	to_board	poldrack-single-stim	s631	False
0.1	129.913	0.184	130.097	0	PA_with_intermediate	test	ward_and_allport	71	9.0	0.184	to_hand	poldrack-single-stim	s631	False
0.1	130.098	0.224	130.322	0	PA_with_intermediate	test	ward_and_allport	89	9.0	0.224	to_board	poldrack-single-stim	s631	False
0.1	130.325	0.988	131.313	0	PA_with_intermediate	test	ward_and_allport	82	9.0	0.988	to_hand	poldrack-single-stim	s631	False
0.1	131.314	0.236	131.55	0	PA_with_intermediate	test	ward_and_allport	71	9.0	0.236	to_board	poldrack-single-stim	s631	False
1.0	131.554	2.0	131.553	0	PA_with_intermediate	test	ward_and_allport	-1	9.0	n/a	feedback	poldrack-single-stim	s631	False
8.41	133.558	8.41	141.968	1	PA_with_intermediate	test	ward_and_allport	82	10.0	8.41	to_hand	poldrack-single-stim	s631	False
0.1	141.969	0.208	142.177	0	PA_with_intermediate	test	ward_and_allport	71	10.0	0.208	to_board	poldrack-single-stim	s631	False
0.1	142.182	0.194	142.376	0	PA_with_intermediate	test	ward_and_allport	82	10.0	0.194	to_hand	poldrack-single-stim	s631	False
0.1	142.377	0.219	142.596	0	PA_with_intermediate	test	ward_and_allport	89	10.0	0.219	to_board	poldrack-single-stim	s631	False
0.1	142.6	0.273	142.873	0	PA_with_intermediate	test	ward_and_allport	71	10.0	0.273	to_hand	poldrack-single-stim	s631	False
0.1	142.874	0.207	143.081	0	PA_with_intermediate	test	ward_and_allport	89	10.0	0.207	to_board	poldrack-single-stim	s631	False
1.0	143.086	2.0	143.085	0	PA_with_intermediate	test	ward_and_allport	-1	10.0	n/a	feedback	poldrack-single-stim	s631	False
5.296	145.09	5.296	150.386	1	PA_without_intermediate	test	ward_and_allport	71	11.0	5.296	to_hand	poldrack-single-stim	s631	False
0.1	150.388	0.137	150.525	0	PA_without_intermediate	test	ward_and_allport	82	11.0	0.137	to_board	poldrack-single-stim	s631	False
0.1	150.529	0.227	150.756	0	PA_without_intermediate	test	ward_and_allport	71	11.0	0.227	to_hand	poldrack-single-stim	s631	False
0.1	150.757	0.244	151.001	0	PA_without_intermediate	test	ward_and_allport	89	11.0	0.244	to_board	poldrack-single-stim	s631	False
0.1	151.005	0.224	151.229	0	PA_without_intermediate	test	ward_and_allport	71	11.0	0.224	to_hand	poldrack-single-stim	s631	False
0.1	151.23	0.189	151.419	0	PA_without_intermediate	test	ward_and_allport	82	11.0	0.189	to_board	poldrack-single-stim	s631	False
1.0	151.424	2.408	151.423	0	PA_without_intermediate	test	ward_and_allport	-1	11.0	n/a	feedback	poldrack-single-stim	s631	False
3.488	153.835	3.488	157.323	1	PA_with_intermediate	test	ward_and_allport	71	12.0	3.488	to_hand	poldrack-single-stim	s631	False
0.1	157.324	0.148	157.472	0	PA_with_intermediate	test	ward_and_allport	82	12.0	0.148	to_board	poldrack-single-stim	s631	False
0.1	157.476	0.207	157.683	0	PA_with_intermediate	test	ward_and_allport	71	12.0	0.207	to_hand	poldrack-single-stim	s631	False
0.1	157.684	0.218	157.902	0	PA_with_intermediate	test	ward_and_allport	89	12.0	0.218	to_board	poldrack-single-stim	s631	False
0.1	157.906	0.144	158.05	0	PA_with_intermediate	test	ward_and_allport	71	12.0	0.144	to_hand	poldrack-single-stim	s631	False
0.1	158.052	0.549	158.601	0	PA_with_intermediate	test	ward_and_allport	71	12.0	0.549	to_board	poldrack-single-stim	s631	False
0.1	158.605	0.361	158.966	0	PA_with_intermediate	test	ward_and_allport	82	12.0	0.361	to_hand	poldrack-single-stim	s631	False
0.1	158.967	0.242	159.209	0	PA_with_intermediate	test	ward_and_allport	71	12.0	0.242	to_board	poldrack-single-stim	s631	False
1.0	159.215	3.768	159.214	0	PA_with_intermediate	test	ward_and_allport	-1	12.0	n/a	feedback	poldrack-single-stim	s631	False
3.946	162.987	3.946	166.933	1	PA_with_intermediate	test	ward_and_allport	89	13.0	3.946	to_hand	poldrack-single-stim	s631	False
0.1	166.934	0.144	167.078	0	PA_with_intermediate	test	ward_and_allport	71	13.0	0.144	to_board	poldrack-single-stim	s631	False
0.1	167.083	0.284	167.367	0	PA_with_intermediate	test	ward_and_allport	89	13.0	0.284	to_hand	poldrack-single-stim	s631	False
0.1	167.368	0.241	167.609	0	PA_with_intermediate	test	ward_and_allport	82	13.0	0.241	to_board	poldrack-single-stim	s631	False
0.1	167.615	0.247	167.862	0	PA_with_intermediate	test	ward_and_allport	71	13.0	0.247	to_hand	poldrack-single-stim	s631	False
0.1	167.863	0.249	168.112	0	PA_with_intermediate	test	ward_and_allport	89	13.0	0.249	to_board	poldrack-single-stim	s631	False
1.0	168.117	2.68	168.116	0	PA_with_intermediate	test	ward_and_allport	-1	13.0	n/a	feedback	poldrack-single-stim	s631	False
5.136	170.804	5.136	175.94	1	PA_without_intermediate	test	ward_and_allport	71	14.0	5.136	to_hand	poldrack-single-stim	s631	False
0.1	175.942	0.148	176.09	0	PA_without_intermediate	test	ward_and_allport	89	14.0	0.148	to_board	poldrack-single-stim	s631	False
0.1	176.095	0.137	176.232	0	PA_without_intermediate	test	ward_and_allport	71	14.0	0.137	to_hand	poldrack-single-stim	s631	False
0.1	176.233	0.241	176.474	0	PA_without_intermediate	test	ward_and_allport	89	14.0	0.241	to_board	poldrack-single-stim	s631	False
0.1	176.479	0.214	176.693	0	PA_without_intermediate	test	ward_and_allport	71	14.0	0.214	to_hand	poldrack-single-stim	s631	False
0.1	176.695	0.248	176.943	0	PA_without_intermediate	test	ward_and_allport	82	14.0	0.248	to_board	poldrack-single-stim	s631	False
1.0	176.947	3.224	176.946	0	PA_without_intermediate	test	ward_and_allport	-1	14.0	n/a	feedback	poldrack-single-stim	s631	False
10.709	185.18	10.709	195.889	1	PA_without_intermediate	test	ward_and_allport	89	15.0	10.709	to_hand	poldrack-single-stim	s631	False
0.1	195.889	0.19	196.079	0	PA_without_intermediate	test	ward_and_allport	82	15.0	0.19	to_board	poldrack-single-stim	s631	False
0.1	196.083	0.408	196.491	0	PA_without_intermediate	test	ward_and_allport	89	15.0	0.408	to_hand	poldrack-single-stim	s631	False
0.1	196.492	0.231	196.723	0	PA_without_intermediate	test	ward_and_allport	71	15.0	0.231	to_board	poldrack-single-stim	s631	False
0.1	196.729	0.261	196.99	0	PA_without_intermediate	test	ward_and_allport	89	15.0	0.261	to_hand	poldrack-single-stim	s631	False
0.1	196.991	0.222	197.213	0	PA_without_intermediate	test	ward_and_allport	82	15.0	0.222	to_board	poldrack-single-stim	s631	False
1.0	197.218	3.36	197.217	0	PA_without_intermediate	test	ward_and_allport	-1	15.0	n/a	feedback	poldrack-single-stim	s631	False
4.039	200.583	4.039	204.622	1	PA_without_intermediate	test	ward_and_allport	89	16.0	4.039	to_hand	poldrack-single-stim	s631	False
0.1	204.623	0.173	204.796	0	PA_without_intermediate	test	ward_and_allport	82	16.0	0.173	to_board	poldrack-single-stim	s631	False
0.1	204.8	0.23	205.03	0	PA_without_intermediate	test	ward_and_allport	89	16.0	0.23	to_hand	poldrack-single-stim	s631	False
0.1	205.031	0.214	205.245	0	PA_without_intermediate	test	ward_and_allport	71	16.0	0.214	to_board	poldrack-single-stim	s631	False
0.1	205.25	0.281	205.531	0	PA_without_intermediate	test	ward_and_allport	89	16.0	0.281	to_hand	poldrack-single-stim	s631	False
0.1	205.532	0.203	205.735	0	PA_without_intermediate	test	ward_and_allport	82	16.0	0.203	to_board	poldrack-single-stim	s631	False
1.0	205.739	2.0	205.738	0	PA_without_intermediate	test	ward_and_allport	-1	16.0	n/a	feedback	poldrack-single-stim	s631	False
5.037	207.744	5.037	212.781	1	PA_without_intermediate	test	ward_and_allport	71	17.0	5.037	to_hand	poldrack-single-stim	s631	False
0.1	212.782	0.175	212.957	0	PA_without_intermediate	test	ward_and_allport	89	17.0	0.175	to_board	poldrack-single-stim	s631	False
0.1	212.962	0.195	213.157	0	PA_without_intermediate	test	ward_and_allport	71	17.0	0.195	to_hand	poldrack-single-stim	s631	False
0.1	213.157	0.184	213.341	0	PA_without_intermediate	test	ward_and_allport	82	17.0	0.184	to_board	poldrack-single-stim	s631	False
0.1	213.347	0.362	213.709	0	PA_without_intermediate	test	ward_and_allport	71	17.0	0.362	to_hand	poldrack-single-stim	s631	False
0.1	213.71	0.244	213.954	0	PA_without_intermediate	test	ward_and_allport	89	17.0	0.244	to_board	poldrack-single-stim	s631	False
1.0	213.959	2.408	213.958	0	PA_without_intermediate	test	ward_and_allport	-1	17.0	n/a	feedback	poldrack-single-stim	s631	False
5.936	216.372	5.936	222.308	1	PA_with_intermediate	test	ward_and_allport	71	18.0	5.936	to_hand	poldrack-single-stim	s631	False
0.1	222.309	0.178	222.487	0	PA_with_intermediate	test	ward_and_allport	82	18.0	0.178	to_board	poldrack-single-stim	s631	False
0.1	222.491	0.3	222.791	0	PA_with_intermediate	test	ward_and_allport	71	18.0	0.3	to_hand	poldrack-single-stim	s631	False
0.1	222.793	0.262	223.055	0	PA_with_intermediate	test	ward_and_allport	89	18.0	0.262	to_board	poldrack-single-stim	s631	False
0.1	223.059	0.396	223.455	0	PA_with_intermediate	test	ward_and_allport	82	18.0	0.396	to_hand	poldrack-single-stim	s631	False
0.1	223.456	0.178	223.634	0	PA_with_intermediate	test	ward_and_allport	89	18.0	0.178	to_board	poldrack-single-stim	s631	False
1.0	223.639	2.136	223.638	0	PA_with_intermediate	test	ward_and_allport	-1	18.0	n/a	feedback	poldrack-single-stim	s631	False
5.082	225.781	5.082	230.863	1	PA_without_intermediate	test	ward_and_allport	82	19.0	5.082	to_hand	poldrack-single-stim	s631	False
0.1	230.864	0.167	231.031	0	PA_without_intermediate	test	ward_and_allport	89	19.0	0.167	to_board	poldrack-single-stim	s631	False
0.1	231.036	0.227	231.263	0	PA_without_intermediate	test	ward_and_allport	82	19.0	0.227	to_hand	poldrack-single-stim	s631	False
0.1	231.263	0.198	231.461	0	PA_without_intermediate	test	ward_and_allport	89	19.0	0.198	to_board	poldrack-single-stim	s631	False
0.1	231.467	0.343	231.81	0	PA_without_intermediate	test	ward_and_allport	82	19.0	0.343	to_hand	poldrack-single-stim	s631	False
0.1	231.811	0.171	231.982	0	PA_without_intermediate	test	ward_and_allport	71	19.0	0.171	to_board	poldrack-single-stim	s631	False
1.0	231.988	5.128	231.987	0	PA_without_intermediate	test	ward_and_allport	-1	19.0	n/a	feedback	poldrack-single-stim	s631	False
5.091	237.122	5.091	242.213	1	PA_without_intermediate	test	ward_and_allport	89	20.0	5.091	to_hand	poldrack-single-stim	s631	False
0.1	242.214	0.15	242.364	0	PA_without_intermediate	test	ward_and_allport	71	20.0	0.15	to_board	poldrack-single-stim	s631	False
0.1	242.369	0.249	242.618	0	PA_without_intermediate	test	ward_and_allport	89	20.0	0.249	to_hand	poldrack-single-stim	s631	False
0.1	242.619	0.468	243.087	0	PA_without_intermediate	test	ward_and_allport	82	20.0	0.468	to_board	poldrack-single-stim	s631	False
0.1	243.092	0.233	243.325	0	PA_without_intermediate	test	ward_and_allport	89	20.0	0.233	to_hand	poldrack-single-stim	s631	False
0.1	243.327	0.409	243.736	0	PA_without_intermediate	test	ward_and_allport	71	20.0	0.409	to_board	poldrack-single-stim	s631	False
1.0	243.741	2.136	243.74	0	PA_without_intermediate	test	ward_and_allport	-1	20.0	n/a	feedback	poldrack-single-stim	s631	False
3.965	245.882	3.965	249.847	1	PA_without_intermediate	test	ward_and_allport	89	21.0	3.965	to_hand	poldrack-single-stim	s631	False
0.1	249.848	0.166	250.014	0	PA_without_intermediate	test	ward_and_allport	71	21.0	0.166	to_board	poldrack-single-stim	s631	False
0.1	250.02	0.239	250.259	0	PA_without_intermediate	test	ward_and_allport	89	21.0	0.239	to_hand	poldrack-single-stim	s631	False
0.1	250.26	0.161	250.421	0	PA_without_intermediate	test	ward_and_allport	71	21.0	0.161	to_board	poldrack-single-stim	s631	False
0.1	250.427	0.256	250.683	0	PA_without_intermediate	test	ward_and_allport	89	21.0	0.256	to_hand	poldrack-single-stim	s631	False
0.1	250.684	0.149	250.833	0	PA_without_intermediate	test	ward_and_allport	82	21.0	0.149	to_board	poldrack-single-stim	s631	False
1.0	250.84	5.264	250.839	0	PA_without_intermediate	test	ward_and_allport	-1	21.0	n/a	feedback	poldrack-single-stim	s631	False
5.063	256.111	5.063	261.174	1	PA_with_intermediate	test	ward_and_allport	89	22.0	5.063	to_hand	poldrack-single-stim	s631	False
0.1	261.175	0.18	261.355	0	PA_with_intermediate	test	ward_and_allport	82	22.0	0.18	to_board	poldrack-single-stim	s631	False
0.1	261.361	0.223	261.584	0	PA_with_intermediate	test	ward_and_allport	89	22.0	0.223	to_hand	poldrack-single-stim	s631	False
0.1	261.586	0.191	261.777	0	PA_with_intermediate	test	ward_and_allport	71	22.0	0.191	to_board	poldrack-single-stim	s631	False
0.1	261.783	0.269	262.052	0	PA_with_intermediate	test	ward_and_allport	82	22.0	0.269	to_hand	poldrack-single-stim	s631	False
0.1	262.053	0.144	262.197	0	PA_with_intermediate	test	ward_and_allport	71	22.0	0.144	to_board	poldrack-single-stim	s631	False
1.0	262.203	4.04	262.202	0	PA_with_intermediate	test	ward_and_allport	-1	22.0	n/a	feedback	poldrack-single-stim	s631	False
3.975	266.25	3.975	270.225	1	PA_with_intermediate	test	ward_and_allport	82	23.0	3.975	to_hand	poldrack-single-stim	s631	False
0.1	270.226	0.17	270.396	0	PA_with_intermediate	test	ward_and_allport	71	23.0	0.17	to_board	poldrack-single-stim	s631	False
0.1	270.403	0.26	270.663	0	PA_with_intermediate	test	ward_and_allport	82	23.0	0.26	to_hand	poldrack-single-stim	s631	False
0.1	270.664	0.248	270.912	0	PA_with_intermediate	test	ward_and_allport	89	23.0	0.248	to_board	poldrack-single-stim	s631	False
0.1	270.919	0.244	271.163	0	PA_with_intermediate	test	ward_and_allport	71	23.0	0.244	to_hand	poldrack-single-stim	s631	False
0.1	271.164	0.171	271.335	0	PA_with_intermediate	test	ward_and_allport	89	23.0	0.171	to_board	poldrack-single-stim	s631	False
1.0	271.342	2.136	271.341	0	PA_with_intermediate	test	ward_and_allport	-1	23.0	n/a	feedback	poldrack-single-stim	s631	False
4.6	273.485	4.6	278.085	1	PA_with_intermediate	test	ward_and_allport	71	24.0	4.6	to_hand	poldrack-single-stim	s631	False
0.1	278.087	0.241	278.328	0	PA_with_intermediate	test	ward_and_allport	89	24.0	0.241	to_board	poldrack-single-stim	s631	False
0.1	278.335	0.209	278.544	0	PA_with_intermediate	test	ward_and_allport	71	24.0	0.209	to_hand	poldrack-single-stim	s631	False
0.1	278.545	0.222	278.767	0	PA_with_intermediate	test	ward_and_allport	71	24.0	0.222	to_board	poldrack-single-stim	s631	False
0.1	278.773	0.496	279.269	0	PA_with_intermediate	test	ward_and_allport	71	24.0	0.496	to_hand	poldrack-single-stim	s631	False
0.1	279.271	0.173	279.444	0	PA_with_intermediate	test	ward_and_allport	82	24.0	0.173	to_board	poldrack-single-stim	s631	False
0.1	279.45	0.373	279.823	0	PA_with_intermediate	test	ward_and_allport	89	24.0	0.373	to_hand	poldrack-single-stim	s631	False
0.1	279.824	0.194	280.018	0	PA_with_intermediate	test	ward_and_allport	82	24.0	0.194	to_board	poldrack-single-stim	s631	False
1.0	280.025	2.408	280.024	0	PA_with_intermediate	test	ward_and_allport	-1	24.0	n/a	feedback	poldrack-single-stim	s631	False
4.645	282.442	4.645	287.087	1	PA_without_intermediate	test	ward_and_allport	71	25.0	4.645	to_hand	poldrack-single-stim	s631	False
0.1	287.088	0.128	287.216	0	PA_without_intermediate	test	ward_and_allport	82	25.0	0.128	to_board	poldrack-single-stim	s631	False
0.1	287.223	0.177	287.4	0	PA_without_intermediate	test	ward_and_allport	71	25.0	0.177	to_hand	poldrack-single-stim	s631	False
0.1	287.401	0.185	287.586	0	PA_without_intermediate	test	ward_and_allport	82	25.0	0.185	to_board	poldrack-single-stim	s631	False
0.1	287.593	0.279	287.872	0	PA_without_intermediate	test	ward_and_allport	71	25.0	0.279	to_hand	poldrack-single-stim	s631	False
0.1	287.873	0.242	288.115	0	PA_without_intermediate	test	ward_and_allport	89	25.0	0.242	to_board	poldrack-single-stim	s631	False
1.0	288.123	2.68	288.122	0	PA_without_intermediate	test	ward_and_allport	-1	25.0	n/a	feedback	poldrack-single-stim	s631	False
6.008	290.811	6.008	296.819	1	PA_with_intermediate	test	ward_and_allport	89	26.0	6.008	to_hand	poldrack-single-stim	s631	False
0.1	296.82	0.148	296.968	0	PA_with_intermediate	test	ward_and_allport	82	26.0	0.148	to_board	poldrack-single-stim	s631	False
0.1	296.975	0.514	297.489	0	PA_with_intermediate	test	ward_and_allport	89	26.0	0.514	to_hand	poldrack-single-stim	s631	False
0.1	297.49	0.292	297.782	0	PA_with_intermediate	test	ward_and_allport	71	26.0	0.292	to_board	poldrack-single-stim	s631	False
0.1	297.789	0.296	298.085	0	PA_with_intermediate	test	ward_and_allport	82	26.0	0.296	to_hand	poldrack-single-stim	s631	False
0.1	298.086	0.288	298.374	0	PA_with_intermediate	test	ward_and_allport	71	26.0	0.288	to_board	poldrack-single-stim	s631	False
1.0	298.384	4.72	298.383	0	PA_with_intermediate	test	ward_and_allport	-1	26.0	n/a	feedback	poldrack-single-stim	s631	False
4.007	303.113	4.007	307.12	1	PA_without_intermediate	test	ward_and_allport	89	27.0	4.007	to_hand	poldrack-single-stim	s631	False
0.1	307.122	0.166	307.288	0	PA_without_intermediate	test	ward_and_allport	71	27.0	0.166	to_board	poldrack-single-stim	s631	False
0.1	307.296	0.267	307.563	0	PA_without_intermediate	test	ward_and_allport	89	27.0	0.267	to_hand	poldrack-single-stim	s631	False
0.1	307.563	0.216	307.779	0	PA_without_intermediate	test	ward_and_allport	82	27.0	0.216	to_board	poldrack-single-stim	s631	False
0.1	307.786	0.344	308.13	0	PA_without_intermediate	test	ward_and_allport	89	27.0	0.344	to_hand	poldrack-single-stim	s631	False
0.1	308.132	0.286	308.418	0	PA_without_intermediate	test	ward_and_allport	71	27.0	0.286	to_board	poldrack-single-stim	s631	False
1.0	308.425	3.224	308.424	0	PA_without_intermediate	test	ward_and_allport	-1	27.0	n/a	feedback	poldrack-single-stim	s631	False
5.34	311.656	5.34	316.996	1	PA_without_intermediate	test	ward_and_allport	89	28.0	5.34	to_hand	poldrack-single-stim	s631	False
0.1	316.997	0.493	317.49	0	PA_without_intermediate	test	ward_and_allport	71	28.0	0.493	to_board	poldrack-single-stim	s631	False
0.1	317.497	0.501	317.998	0	PA_without_intermediate	test	ward_and_allport	89	28.0	0.501	to_hand	poldrack-single-stim	s631	False
0.1	318.0	0.238	318.238	0	PA_without_intermediate	test	ward_and_allport	71	28.0	0.238	to_board	poldrack-single-stim	s631	False
0.1	318.246	0.339	318.585	0	PA_without_intermediate	test	ward_and_allport	89	28.0	0.339	to_hand	poldrack-single-stim	s631	False
0.1	318.585	0.214	318.799	0	PA_without_intermediate	test	ward_and_allport	82	28.0	0.214	to_board	poldrack-single-stim	s631	False
1.0	318.807	2.272	318.806	0	PA_without_intermediate	test	ward_and_allport	-1	28.0	n/a	feedback	poldrack-single-stim	s631	False
8.329	321.087	8.329	329.416	1	PA_with_intermediate	test	ward_and_allport	89	29.0	8.329	to_hand	poldrack-single-stim	s631	False
0.1	329.417	0.171	329.588	0	PA_with_intermediate	test	ward_and_allport	82	29.0	0.171	to_board	poldrack-single-stim	s631	False
0.1	329.595	0.223	329.818	0	PA_with_intermediate	test	ward_and_allport	89	29.0	0.223	to_hand	poldrack-single-stim	s631	False
0.1	329.82	0.156	329.976	0	PA_with_intermediate	test	ward_and_allport	71	29.0	0.156	to_board	poldrack-single-stim	s631	False
0.1	329.984	0.336	330.32	0	PA_with_intermediate	test	ward_and_allport	82	29.0	0.336	to_hand	poldrack-single-stim	s631	False
0.1	330.321	0.205	330.526	0	PA_with_intermediate	test	ward_and_allport	89	29.0	0.205	to_board	poldrack-single-stim	s631	False
1.0	330.534	3.632	330.533	0	PA_with_intermediate	test	ward_and_allport	-1	29.0	n/a	feedback	poldrack-single-stim	s631	False
10.774	339.174	10.774	349.948	1	PA_without_intermediate	test	ward_and_allport	82	30.0	10.774	to_hand	poldrack-single-stim	s631	False
0.1	349.948	0.154	350.102	0	PA_without_intermediate	test	ward_and_allport	89	30.0	0.154	to_board	poldrack-single-stim	s631	False
0.1	350.109	0.228	350.337	0	PA_without_intermediate	test	ward_and_allport	82	30.0	0.228	to_hand	poldrack-single-stim	s631	False
0.1	350.338	0.157	350.495	0	PA_without_intermediate	test	ward_and_allport	71	30.0	0.157	to_board	poldrack-single-stim	s631	False
0.1	350.503	0.264	350.767	0	PA_without_intermediate	test	ward_and_allport	82	30.0	0.264	to_hand	poldrack-single-stim	s631	False
0.1	350.767	0.211	350.978	0	PA_without_intermediate	test	ward_and_allport	89	30.0	0.211	to_board	poldrack-single-stim	s631	False
1.0	350.987	2.408	350.986	0	PA_without_intermediate	test	ward_and_allport	-1	30.0	n/a	feedback	poldrack-single-stim	s631	False
5.097	353.404	5.097	358.501	1	PA_without_intermediate	test	ward_and_allport	89	31.0	5.097	to_hand	poldrack-single-stim	s631	False
0.1	358.502	0.145	358.647	0	PA_without_intermediate	test	ward_and_allport	82	31.0	0.145	to_board	poldrack-single-stim	s631	False
0.1	358.655	0.198	358.853	0	PA_without_intermediate	test	ward_and_allport	89	31.0	0.198	to_hand	poldrack-single-stim	s631	False
0.1	358.854	0.215	359.069	0	PA_without_intermediate	test	ward_and_allport	82	31.0	0.215	to_board	poldrack-single-stim	s631	False
0.1	359.077	0.384	359.461	0	PA_without_intermediate	test	ward_and_allport	89	31.0	0.384	to_hand	poldrack-single-stim	s631	False
0.1	359.462	0.22	359.682	0	PA_without_intermediate	test	ward_and_allport	71	31.0	0.22	to_board	poldrack-single-stim	s631	False
1.0	359.69	2.0	359.689	0	PA_without_intermediate	test	ward_and_allport	-1	31.0	n/a	feedback	poldrack-single-stim	s631	False
5.023	361.698	5.023	366.721	1	PA_with_intermediate	test	ward_and_allport	71	32.0	5.023	to_hand	poldrack-single-stim	s631	False
0.1	366.722	0.136	366.858	0	PA_with_intermediate	test	ward_and_allport	82	32.0	0.136	to_board	poldrack-single-stim	s631	False
0.1	366.866	0.209	367.075	0	PA_with_intermediate	test	ward_and_allport	71	32.0	0.209	to_hand	poldrack-single-stim	s631	False
0.1	367.077	0.21	367.287	0	PA_with_intermediate	test	ward_and_allport	89	32.0	0.21	to_board	poldrack-single-stim	s631	False
0.1	367.297	0.277	367.574	0	PA_with_intermediate	test	ward_and_allport	82	32.0	0.277	to_hand	poldrack-single-stim	s631	False
0.1	367.574	0.16	367.734	0	PA_with_intermediate	test	ward_and_allport	89	32.0	0.16	to_board	poldrack-single-stim	s631	False
1.0	367.744	2.0	367.743	0	PA_with_intermediate	test	ward_and_allport	-1	32.0	n/a	feedback	poldrack-single-stim	s631	False
5.284	369.753	5.284	375.037	1	PA_with_intermediate	test	ward_and_allport	71	33.0	5.284	to_hand	poldrack-single-stim	s631	False
0.1	375.038	0.167	375.205	0	PA_with_intermediate	test	ward_and_allport	89	33.0	0.167	to_board	poldrack-single-stim	s631	False
0.1	375.214	0.19	375.404	0	PA_with_intermediate	test	ward_and_allport	71	33.0	0.19	to_hand	poldrack-single-stim	s631	False
0.1	375.405	0.192	375.597	0	PA_with_intermediate	test	ward_and_allport	82	33.0	0.192	to_board	poldrack-single-stim	s631	False
0.1	375.606	0.274	375.88	0	PA_with_intermediate	test	ward_and_allport	89	33.0	0.274	to_hand	poldrack-single-stim	s631	False
0.1	375.881	0.185	376.066	0	PA_with_intermediate	test	ward_and_allport	71	33.0	0.185	to_board	poldrack-single-stim	s631	False
1.0	376.077	2.0	376.076	0	PA_with_intermediate	test	ward_and_allport	-1	33.0	n/a	feedback	poldrack-single-stim	s631	False
4.316	378.087	4.316	382.403	1	PA_with_intermediate	test	ward_and_allport	82	34.0	4.316	to_hand	poldrack-single-stim	s631	False
0.1	382.404	0.146	382.55	0	PA_with_intermediate	test	ward_and_allport	71	34.0	0.146	to_board	poldrack-single-stim	s631	False
0.1	382.558	0.212	382.77	0	PA_with_intermediate	test	ward_and_allport	82	34.0	0.212	to_hand	poldrack-single-stim	s631	False
0.1	382.771	0.206	382.977	0	PA_with_intermediate	test	ward_and_allport	89	34.0	0.206	to_board	poldrack-single-stim	s631	False
0.1	382.987	0.26	383.247	0	PA_with_intermediate	test	ward_and_allport	71	34.0	0.26	to_hand	poldrack-single-stim	s631	False
0.1	383.249	0.184	383.433	0	PA_with_intermediate	test	ward_and_allport	82	34.0	0.184	to_board	poldrack-single-stim	s631	False
1.0	383.443	2.408	383.442	0	PA_with_intermediate	test	ward_and_allport	-1	34.0	n/a	feedback	poldrack-single-stim	s631	False
4.283	385.86	4.283	390.143	1	PA_without_intermediate	test	ward_and_allport	82	35.0	4.283	to_hand	poldrack-single-stim	s631	False
0.1	390.144	0.124	390.268	0	PA_without_intermediate	test	ward_and_allport	71	35.0	0.124	to_board	poldrack-single-stim	s631	False
0.1	390.276	0.165	390.441	0	PA_without_intermediate	test	ward_and_allport	82	35.0	0.165	to_hand	poldrack-single-stim	s631	False
0.1	390.442	0.146	390.588	0	PA_without_intermediate	test	ward_and_allport	71	35.0	0.146	to_board	poldrack-single-stim	s631	False
0.1	390.598	0.256	390.854	0	PA_without_intermediate	test	ward_and_allport	82	35.0	0.256	to_hand	poldrack-single-stim	s631	False
0.1	390.855	0.278	391.133	0	PA_without_intermediate	test	ward_and_allport	89	35.0	0.278	to_board	poldrack-single-stim	s631	False
1.0	391.144	2.816	391.143	0	PA_without_intermediate	test	ward_and_allport	-1	35.0	n/a	feedback	poldrack-single-stim	s631	False
4.012	393.967	4.012	397.979	1	PA_with_intermediate	test	ward_and_allport	82	36.0	4.012	to_hand	poldrack-single-stim	s631	False
0.1	397.979	0.179	398.158	0	PA_with_intermediate	test	ward_and_allport	71	36.0	0.179	to_board	poldrack-single-stim	s631	False
0.1	398.164	0.195	398.359	0	PA_with_intermediate	test	ward_and_allport	82	36.0	0.195	to_hand	poldrack-single-stim	s631	False
0.1	398.361	0.231	398.592	0	PA_with_intermediate	test	ward_and_allport	89	36.0	0.231	to_board	poldrack-single-stim	s631	False
0.1	398.602	0.252	398.854	0	PA_with_intermediate	test	ward_and_allport	71	36.0	0.252	to_hand	poldrack-single-stim	s631	False
0.1	398.855	0.179	399.034	0	PA_with_intermediate	test	ward_and_allport	82	36.0	0.179	to_board	poldrack-single-stim	s631	False
1.0	399.046	4.176	399.045	0	PA_with_intermediate	test	ward_and_allport	-1	36.0	n/a	feedback	poldrack-single-stim	s631	False
3.898	403.228	3.898	407.126	1	PA_with_intermediate	test	ward_and_allport	89	37.0	3.898	to_hand	poldrack-single-stim	s631	False
0.1	407.127	0.169	407.296	0	PA_with_intermediate	test	ward_and_allport	82	37.0	0.169	to_board	poldrack-single-stim	s631	False
0.1	407.303	0.491	407.794	0	PA_with_intermediate	test	ward_and_allport	89	37.0	0.491	to_hand	poldrack-single-stim	s631	False
0.1	407.795	0.227	408.022	0	PA_with_intermediate	test	ward_and_allport	71	37.0	0.227	to_board	poldrack-single-stim	s631	False
0.1	408.031	0.31	408.341	0	PA_with_intermediate	test	ward_and_allport	82	37.0	0.31	to_hand	poldrack-single-stim	s631	False
0.1	408.343	0.236	408.579	0	PA_with_intermediate	test	ward_and_allport	89	37.0	0.236	to_board	poldrack-single-stim	s631	False
1.0	408.589	3.36	408.588	0	PA_with_intermediate	test	ward_and_allport	-1	37.0	n/a	feedback	poldrack-single-stim	s631	False
4.579	411.958	4.579	416.537	1	PA_with_intermediate	test	ward_and_allport	82	38.0	4.579	to_hand	poldrack-single-stim	s631	False
0.1	416.538	0.165	416.703	0	PA_with_intermediate	test	ward_and_allport	89	38.0	0.165	to_board	poldrack-single-stim	s631	False
0.1	416.712	0.239	416.951	0	PA_with_intermediate	test	ward_and_allport	82	38.0	0.239	to_hand	poldrack-single-stim	s631	False
0.1	416.952	0.175	417.127	0	PA_with_intermediate	test	ward_and_allport	71	38.0	0.175	to_board	poldrack-single-stim	s631	False
0.1	417.137	0.306	417.443	0	PA_with_intermediate	test	ward_and_allport	89	38.0	0.306	to_hand	poldrack-single-stim	s631	False
0.1	417.444	0.18	417.624	0	PA_with_intermediate	test	ward_and_allport	82	38.0	0.18	to_board	poldrack-single-stim	s631	False
1.0	417.634	2.0	417.633	0	PA_with_intermediate	test	ward_and_allport	-1	38.0	n/a	feedback	poldrack-single-stim	s631	False
7.048	419.643	7.048	426.691	1	PA_without_intermediate	test	ward_and_allport	71	39.0	7.048	to_hand	poldrack-single-stim	s631	False
0.1	426.692	0.108	426.8	0	PA_without_intermediate	test	ward_and_allport	89	39.0	0.108	to_board	poldrack-single-stim	s631	False
0.1	426.807	0.172	426.979	0	PA_without_intermediate	test	ward_and_allport	71	39.0	0.172	to_hand	poldrack-single-stim	s631	False
0.1	426.981	0.179	427.16	0	PA_without_intermediate	test	ward_and_allport	89	39.0	0.179	to_board	poldrack-single-stim	s631	False
0.1	427.169	0.274	427.443	0	PA_without_intermediate	test	ward_and_allport	71	39.0	0.274	to_hand	poldrack-single-stim	s631	False
0.1	427.444	0.245	427.689	0	PA_without_intermediate	test	ward_and_allport	82	39.0	0.245	to_board	poldrack-single-stim	s631	False
1.0	427.7	2.408	427.699	0	PA_without_intermediate	test	ward_and_allport	-1	39.0	n/a	feedback	poldrack-single-stim	s631	False
3.344	430.118	3.344	433.462	1	PA_with_intermediate	test	ward_and_allport	71	40.0	3.344	to_hand	poldrack-single-stim	s631	False
0.1	433.464	0.151	433.615	0	PA_with_intermediate	test	ward_and_allport	89	40.0	0.151	to_board	poldrack-single-stim	s631	False
0.1	433.626	0.161	433.787	0	PA_with_intermediate	test	ward_and_allport	71	40.0	0.161	to_hand	poldrack-single-stim	s631	False
0.1	433.788	0.186	433.974	0	PA_with_intermediate	test	ward_and_allport	82	40.0	0.186	to_board	poldrack-single-stim	s631	False
0.1	433.983	0.283	434.266	0	PA_with_intermediate	test	ward_and_allport	89	40.0	0.283	to_hand	poldrack-single-stim	s631	False
0.1	434.267	0.158	434.425	0	PA_with_intermediate	test	ward_and_allport	71	40.0	0.158	to_board	poldrack-single-stim	s631	False
1.0	434.433	2.816	434.432	0	PA_with_intermediate	test	ward_and_allport	-1	40.0	n/a	feedback	poldrack-single-stim	s631	False
3.282	437.258	3.282	440.54	1	PA_without_intermediate	test	ward_and_allport	89	41.0	3.282	to_hand	poldrack-single-stim	s631	False
0.1	440.541	0.124	440.665	0	PA_without_intermediate	test	ward_and_allport	82	41.0	0.124	to_board	poldrack-single-stim	s631	False
0.1	440.672	0.175	440.847	0	PA_without_intermediate	test	ward_and_allport	89	41.0	0.175	to_hand	poldrack-single-stim	s631	False
0.1	440.848	0.181	441.029	0	PA_without_intermediate	test	ward_and_allport	82	41.0	0.181	to_board	poldrack-single-stim	s631	False
0.1	441.039	0.313	441.352	0	PA_without_intermediate	test	ward_and_allport	89	41.0	0.313	to_hand	poldrack-single-stim	s631	False
0.1	441.354	0.18	441.534	0	PA_without_intermediate	test	ward_and_allport	71	41.0	0.18	to_board	poldrack-single-stim	s631	False
1.0	441.543	3.088	441.542	0	PA_without_intermediate	test	ward_and_allport	-1	41.0	n/a	feedback	poldrack-single-stim	s631	False
2.573	444.639	2.573	447.212	1	PA_without_intermediate	test	ward_and_allport	71	42.0	2.573	to_hand	poldrack-single-stim	s631	False
0.1	447.212	0.125	447.337	0	PA_without_intermediate	test	ward_and_allport	82	42.0	0.125	to_board	poldrack-single-stim	s631	False
0.1	447.345	0.183	447.528	0	PA_without_intermediate	test	ward_and_allport	71	42.0	0.183	to_hand	poldrack-single-stim	s631	False
0.1	447.528	0.159	447.687	0	PA_without_intermediate	test	ward_and_allport	82	42.0	0.159	to_board	poldrack-single-stim	s631	False
0.1	447.698	0.192	447.89	0	PA_without_intermediate	test	ward_and_allport	71	42.0	0.192	to_hand	poldrack-single-stim	s631	False
0.1	447.891	0.212	448.103	0	PA_without_intermediate	test	ward_and_allport	89	42.0	0.212	to_board	poldrack-single-stim	s631	False
1.0	448.112	2.136	448.111	0	PA_without_intermediate	test	ward_and_allport	-1	42.0	n/a	feedback	poldrack-single-stim	s631	False
2.897	450.256	2.897	453.153	1	PA_without_intermediate	test	ward_and_allport	82	43.0	2.897	to_hand	poldrack-single-stim	s631	False
0.1	453.154	0.111	453.265	0	PA_without_intermediate	test	ward_and_allport	71	43.0	0.111	to_board	poldrack-single-stim	s631	False
0.1	453.273	0.261	453.534	0	PA_without_intermediate	test	ward_and_allport	82	43.0	0.261	to_hand	poldrack-single-stim	s631	False
0.1	453.535	0.23	453.765	0	PA_without_intermediate	test	ward_and_allport	89	43.0	0.23	to_board	poldrack-single-stim	s631	False
0.1	453.776	0.26	454.036	0	PA_without_intermediate	test	ward_and_allport	82	43.0	0.26	to_hand	poldrack-single-stim	s631	False
0.1	454.037	0.197	454.234	0	PA_without_intermediate	test	ward_and_allport	71	43.0	0.197	to_board	poldrack-single-stim	s631	False
1.0	454.244	7.168	454.243	0	PA_without_intermediate	test	ward_and_allport	-1	43.0	n/a	feedback	poldrack-single-stim	s631	False
3.762	461.42	3.762	465.182	1	PA_without_intermediate	test	ward_and_allport	82	44.0	3.762	to_hand	poldrack-single-stim	s631	False
0.1	465.183	0.171	465.354	0	PA_without_intermediate	test	ward_and_allport	89	44.0	0.171	to_board	poldrack-single-stim	s631	False
0.1	465.364	0.254	465.618	0	PA_without_intermediate	test	ward_and_allport	82	44.0	0.254	to_hand	poldrack-single-stim	s631	False
0.1	465.62	0.339	465.959	0	PA_without_intermediate	test	ward_and_allport	71	44.0	0.339	to_board	poldrack-single-stim	s631	False
0.1	465.97	0.664	466.634	0	PA_without_intermediate	test	ward_and_allport	82	44.0	0.664	to_hand	poldrack-single-stim	s631	False
0.1	466.635	0.188	466.823	0	PA_without_intermediate	test	ward_and_allport	89	44.0	0.188	to_board	poldrack-single-stim	s631	False
1.0	466.836	2.816	466.835	0	PA_without_intermediate	test	ward_and_allport	-1	44.0	n/a	feedback	poldrack-single-stim	s631	False
6.196	474.665	6.196	480.861	1	PA_with_intermediate	test	ward_and_allport	89	45.0	6.196	to_hand	poldrack-single-stim	s631	False
0.1	480.862	0.154	481.016	0	PA_with_intermediate	test	ward_and_allport	71	45.0	0.154	to_board	poldrack-single-stim	s631	False
0.1	481.026	0.197	481.223	0	PA_with_intermediate	test	ward_and_allport	89	45.0	0.197	to_hand	poldrack-single-stim	s631	False
0.1	481.224	0.261	481.485	0	PA_with_intermediate	test	ward_and_allport	82	45.0	0.261	to_board	poldrack-single-stim	s631	False
0.1	481.496	0.288	481.784	0	PA_with_intermediate	test	ward_and_allport	71	45.0	0.288	to_hand	poldrack-single-stim	s631	False
0.1	481.785	0.19	481.975	0	PA_with_intermediate	test	ward_and_allport	82	45.0	0.19	to_board	poldrack-single-stim	s631	False
1.0	481.988	2.952	481.987	0	PA_with_intermediate	test	ward_and_allport	-1	45.0	n/a	feedback	poldrack-single-stim	s631	False
5.414	484.948	5.414	490.362	1	PA_with_intermediate	test	ward_and_allport	89	46.0	5.414	to_hand	poldrack-single-stim	s631	False
0.1	490.363	0.157	490.52	0	PA_with_intermediate	test	ward_and_allport	71	46.0	0.157	to_board	poldrack-single-stim	s631	False
0.1	490.532	0.202	490.734	0	PA_with_intermediate	test	ward_and_allport	89	46.0	0.202	to_hand	poldrack-single-stim	s631	False
0.1	490.735	0.217	490.952	0	PA_with_intermediate	test	ward_and_allport	82	46.0	0.217	to_board	poldrack-single-stim	s631	False
0.1	490.965	0.231	491.196	0	PA_with_intermediate	test	ward_and_allport	71	46.0	0.231	to_hand	poldrack-single-stim	s631	False
0.1	491.197	0.195	491.392	0	PA_with_intermediate	test	ward_and_allport	89	46.0	0.195	to_board	poldrack-single-stim	s631	False
1.0	491.403	2.136	491.402	0	PA_with_intermediate	test	ward_and_allport	-1	46.0	n/a	feedback	poldrack-single-stim	s631	False
3.481	493.548	3.481	497.029	1	PA_without_intermediate	test	ward_and_allport	82	47.0	3.481	to_hand	poldrack-single-stim	s631	False
0.1	497.03	0.148	497.178	0	PA_without_intermediate	test	ward_and_allport	89	47.0	0.148	to_board	poldrack-single-stim	s631	False
0.1	497.187	0.186	497.373	0	PA_without_intermediate	test	ward_and_allport	82	47.0	0.186	to_hand	poldrack-single-stim	s631	False
0.1	497.374	0.213	497.587	0	PA_without_intermediate	test	ward_and_allport	89	47.0	0.213	to_board	poldrack-single-stim	s631	False
0.1	497.596	0.18	497.776	0	PA_without_intermediate	test	ward_and_allport	82	47.0	0.18	to_hand	poldrack-single-stim	s631	False
0.1	497.777	0.23	498.007	0	PA_without_intermediate	test	ward_and_allport	71	47.0	0.23	to_board	poldrack-single-stim	s631	False
1.0	498.015	2.68	498.014	0	PA_without_intermediate	test	ward_and_allport	-1	47.0	n/a	feedback	poldrack-single-stim	s631	False
