onset	duration	movement_onset	CTI	block_duration	correct	correct_response	cue	cue_switch	experiment_exp_id	key_press	response_time	stim_color	stim_number	switch_type	task	task_switch	trial_id	trial_type	worker_id	first_trial_of_block	junk
3.607	1.0	4.35	0.1	3.224	False	71.0	Orange-Blue	stay	twobytwo	89.0	0.643	orange	8.0	cue_stay	color	stay	stim	poldrack-single-stim	s631	1	False
6.935	1.0	7.734	0.1	2.408	True	89.0	Magnitude	n/a	twobytwo	89.0	0.699	orange	7.0	task_switch	magnitude	switch	stim	poldrack-single-stim	s631	0	False
10.245	1.0	11.637	0.9	2.816	True	71.0	Color	n/a	twobytwo	71.0	0.492	orange	7.0	task_switch	color	switch	stim	poldrack-single-stim	s631	0	False
13.965	1.0	15.299	0.9	2.408	True	89.0	Magnitude	n/a	twobytwo	89.0	0.434	orange	6.0	task_switch	magnitude	switch	stim	poldrack-single-stim	s631	0	False
16.475	1.0	17.225	0.1	2.136	True	71.0	Orange-Blue	n/a	twobytwo	71.0	0.65	orange	1.0	task_switch	color	switch	stim	poldrack-single-stim	s631	0	False
19.513	1.0	20.919	0.9	2.136	True	89.0	Orange-Blue	stay	twobytwo	89.0	0.506	blue	9.0	cue_stay	color	stay	stim	poldrack-single-stim	s631	0	False
21.752	1.0	22.493	0.1	2.0	True	89.0	Color	switch	twobytwo	89.0	0.641	blue	8.0	cue_switch	color	stay	stim	poldrack-single-stim	s631	0	False
24.655	1.0	25.972	0.9	2.0	True	89.0	Orange-Blue	switch	twobytwo	89.0	0.417	blue	8.0	cue_switch	color	stay	stim	poldrack-single-stim	s631	0	False
27.557	1.0	28.864	0.9	2.272	True	71.0	High-Low	n/a	twobytwo	71.0	0.407	orange	2.0	task_switch	magnitude	switch	stim	poldrack-single-stim	s631	0	False
30.732	1.0	32.042	0.9	2.408	True	71.0	Orange-Blue	n/a	twobytwo	71.0	0.41	orange	6.0	task_switch	color	switch	stim	poldrack-single-stim	s631	0	False
33.242	1.0	33.793	0.1	2.0	True	89.0	Magnitude	n/a	twobytwo	89.0	0.451	blue	9.0	task_switch	magnitude	switch	stim	poldrack-single-stim	s631	0	False
36.146	1.0	37.569	0.9	2.136	True	71.0	High-Low	switch	twobytwo	71.0	0.523	orange	3.0	cue_switch	magnitude	stay	stim	poldrack-single-stim	s631	0	False
38.384	1.0	39.153	0.1	2.0	True	71.0	Orange-Blue	n/a	twobytwo	71.0	0.669	orange	7.0	task_switch	color	switch	stim	poldrack-single-stim	s631	0	False
40.487	1.0	41.831	0.1	2.408	True	89.0	Magnitude	n/a	twobytwo	89.0	1.244	orange	6.0	task_switch	magnitude	switch	stim	poldrack-single-stim	s631	0	False
42.998	1.0	43.951	0.1	2.272	True	89.0	High-Low	switch	twobytwo	89.0	0.853	blue	9.0	cue_switch	magnitude	stay	stim	poldrack-single-stim	s631	0	False
46.173	1.0	47.507	0.9	2.0	True	89.0	Orange-Blue	n/a	twobytwo	89.0	0.434	blue	3.0	task_switch	color	switch	stim	poldrack-single-stim	s631	0	False
49.076	1.0	50.611	0.9	2.272	True	89.0	Color	switch	twobytwo	89.0	0.635	blue	3.0	cue_switch	color	stay	stim	poldrack-single-stim	s631	0	False
51.45	1.0	52.225	0.1	2.0	True	71.0	High-Low	n/a	twobytwo	71.0	0.675	blue	2.0	task_switch	magnitude	switch	stim	poldrack-single-stim	s631	0	False
53.553	1.0	54.469	0.1	2.0	True	71.0	Color	n/a	twobytwo	71.0	0.816	orange	7.0	task_switch	color	switch	stim	poldrack-single-stim	s631	0	False
56.455	1.0	57.788	0.9	2.272	True	89.0	Color	stay	twobytwo	89.0	0.433	blue	1.0	cue_stay	color	stay	stim	poldrack-single-stim	s631	0	False
59.63	1.0	61.071	0.9	2.136	True	89.0	High-Low	n/a	twobytwo	89.0	0.541	blue	6.0	task_switch	magnitude	switch	stim	poldrack-single-stim	s631	0	False
61.869	1.0	62.795	0.1	2.0	True	89.0	Color	n/a	twobytwo	89.0	0.826	blue	1.0	task_switch	color	switch	stim	poldrack-single-stim	s631	0	False
64.772	1.0	66.366	0.9	2.0	True	89.0	Color	stay	twobytwo	89.0	0.694	blue	7.0	cue_stay	color	stay	stim	poldrack-single-stim	s631	0	False
66.874	1.0	67.89	0.1	2.0	True	89.0	Magnitude	n/a	twobytwo	89.0	0.916	orange	6.0	task_switch	magnitude	switch	stim	poldrack-single-stim	s631	0	False
69.777	1.0	71.089	0.9	2.0	True	71.0	High-Low	switch	twobytwo	71.0	0.412	blue	2.0	cue_switch	magnitude	stay	stim	poldrack-single-stim	s631	0	False
71.88	1.0	72.52	0.1	2.0	True	71.0	High-Low	stay	twobytwo	71.0	0.54	blue	1.0	cue_stay	magnitude	stay	stim	poldrack-single-stim	s631	0	False
74.783	1.0	76.028	0.9	2.136	True	71.0	Orange-Blue	n/a	twobytwo	71.0	0.345	orange	8.0	task_switch	color	switch	stim	poldrack-single-stim	s631	0	False
77.022	1.0	77.641	0.1	2.0	True	89.0	Orange-Blue	stay	twobytwo	89.0	0.519	blue	9.0	cue_stay	color	stay	stim	poldrack-single-stim	s631	0	False
79.924	1.0	81.335	0.9	2.0	True	71.0	High-Low	n/a	twobytwo	71.0	0.511	orange	4.0	task_switch	magnitude	switch	stim	poldrack-single-stim	s631	0	False
82.026	1.0	82.745	0.1	2.136	True	89.0	Magnitude	switch	twobytwo	89.0	0.619	blue	6.0	cue_switch	magnitude	stay	stim	poldrack-single-stim	s631	0	False
84.265	1.0	84.989	0.1	2.0	True	89.0	High-Low	switch	twobytwo	89.0	0.624	blue	9.0	cue_switch	magnitude	stay	stim	poldrack-single-stim	s631	0	False
87.168	1.0	88.554	0.9	2.136	True	71.0	Color	n/a	twobytwo	71.0	0.486	orange	7.0	task_switch	color	switch	stim	poldrack-single-stim	s631	0	False
90.206	1.0	91.652	0.9	2.68	True	71.0	High-Low	n/a	twobytwo	71.0	0.546	orange	1.0	task_switch	magnitude	switch	stim	poldrack-single-stim	s631	0	False
92.988	1.0	93.692	0.1	2.272	True	89.0	High-Low	stay	twobytwo	89.0	0.604	blue	9.0	cue_stay	magnitude	stay	stim	poldrack-single-stim	s631	0	False
96.163	1.0	97.573	0.9	2.136	True	71.0	High-Low	stay	twobytwo	71.0	0.51	orange	3.0	cue_stay	magnitude	stay	stim	poldrack-single-stim	s631	0	False
98.402	1.0	99.422	0.1	2.0	True	89.0	Orange-Blue	n/a	twobytwo	89.0	0.92	blue	1.0	task_switch	color	switch	stim	poldrack-single-stim	s631	0	False
101.304	1.0	102.88	0.9	2.136	True	71.0	High-Low	n/a	twobytwo	71.0	0.676	blue	4.0	task_switch	magnitude	switch	stim	poldrack-single-stim	s631	0	False
104.343	1.0	105.618	0.9	2.68	True	89.0	Orange-Blue	n/a	twobytwo	89.0	0.375	blue	9.0	task_switch	color	switch	stim	poldrack-single-stim	s631	0	False
107.925	1.0	109.589	0.9	2.272	True	89.0	High-Low	n/a	twobytwo	89.0	0.764	blue	7.0	task_switch	magnitude	switch	stim	poldrack-single-stim	s631	0	False
110.299	1.0	110.912	0.1	2.0	True	71.0	Magnitude	switch	twobytwo	71.0	0.513	orange	3.0	cue_switch	magnitude	stay	stim	poldrack-single-stim	s631	0	False
113.202	1.0	114.517	0.9	2.0	True	89.0	Color	n/a	twobytwo	89.0	0.415	blue	4.0	task_switch	color	switch	stim	poldrack-single-stim	s631	0	False
115.304	1.0	116.044	0.1	2.136	True	89.0	Color	stay	twobytwo	89.0	0.64	blue	8.0	cue_stay	color	stay	stim	poldrack-single-stim	s631	0	False
117.543	1.0	118.382	0.1	2.0	True	89.0	Color	stay	twobytwo	89.0	0.739	blue	3.0	cue_stay	color	stay	stim	poldrack-single-stim	s631	0	False
119.645	1.0	120.32	0.1	2.0	True	89.0	Color	stay	twobytwo	89.0	0.575	blue	8.0	cue_stay	color	stay	stim	poldrack-single-stim	s631	0	False
122.548	1.0	123.791	0.9	2.0	True	71.0	Orange-Blue	switch	twobytwo	71.0	0.343	orange	9.0	cue_switch	color	stay	stim	poldrack-single-stim	s631	0	False
125.45	1.0	127.121	0.9	2.272	True	89.0	High-Low	n/a	twobytwo	89.0	0.771	orange	8.0	task_switch	magnitude	switch	stim	poldrack-single-stim	s631	0	False
127.825	1.0	128.964	0.1	2.408	True	89.0	Color	n/a	twobytwo	89.0	1.039	blue	8.0	task_switch	color	switch	stim	poldrack-single-stim	s631	0	False
130.336	1.0	131.145	0.1	2.0	True	71.0	Color	stay	twobytwo	71.0	0.709	orange	4.0	cue_stay	color	stay	stim	poldrack-single-stim	s631	0	False
132.439	1.0	133.038	0.1	2.0	True	71.0	Color	stay	twobytwo	71.0	0.499	orange	3.0	cue_stay	color	stay	stim	poldrack-single-stim	s631	0	False
135.342	1.0	136.728	0.9	2.0	True	71.0	Magnitude	n/a	twobytwo	71.0	0.486	blue	2.0	task_switch	magnitude	switch	stim	poldrack-single-stim	s631	0	False
138.244	1.0	139.656	0.9	2.272	True	89.0	Orange-Blue	n/a	twobytwo	89.0	0.512	blue	8.0	task_switch	color	switch	stim	poldrack-single-stim	s631	0	False
140.619	1.0	141.209	0.1	2.136	False	71.0	Orange-Blue	stay	twobytwo	89.0	0.49	orange	8.0	cue_stay	color	stay	stim	poldrack-single-stim	s631	0	False
142.858	1.0	143.969	0.1	2.0	True	71.0	Magnitude	n/a	twobytwo	71.0	1.011	blue	4.0	task_switch	magnitude	switch	stim	poldrack-single-stim	s631	0	False
145.76	1.0	147.208	0.9	2.544	True	71.0	High-Low	switch	twobytwo	71.0	0.548	orange	4.0	cue_switch	magnitude	stay	stim	poldrack-single-stim	s631	0	False
148.406	1.0	149.14	0.1	2.272	True	71.0	Color	n/a	twobytwo	71.0	0.634	orange	2.0	task_switch	color	switch	stim	poldrack-single-stim	s631	0	False
151.581	1.0	152.888	0.9	2.272	True	71.0	Color	stay	twobytwo	71.0	0.407	orange	9.0	cue_stay	color	stay	stim	poldrack-single-stim	s631	0	False
153.956	1.0	154.504	0.1	2.0	True	71.0	Orange-Blue	switch	twobytwo	71.0	0.448	orange	9.0	cue_switch	color	stay	stim	poldrack-single-stim	s631	0	False
156.059	1.0	156.672	0.1	2.0	True	71.0	Orange-Blue	stay	twobytwo	71.0	0.513	orange	7.0	cue_stay	color	stay	stim	poldrack-single-stim	s631	0	False
158.962	1.0	160.321	0.9	2.136	True	71.0	Magnitude	n/a	twobytwo	71.0	0.459	blue	3.0	task_switch	magnitude	switch	stim	poldrack-single-stim	s631	0	False
162.0	1.0	163.407	0.9	2.0	True	89.0	Color	n/a	twobytwo	89.0	0.507	blue	7.0	task_switch	color	switch	stim	poldrack-single-stim	s631	0	False
164.903	1.0	166.271	0.9	2.136	True	89.0	Orange-Blue	switch	twobytwo	89.0	0.468	blue	6.0	cue_switch	color	stay	stim	poldrack-single-stim	s631	0	False
167.141	1.0	167.865	0.1	2.272	True	71.0	Magnitude	n/a	twobytwo	71.0	0.624	orange	1.0	task_switch	magnitude	switch	stim	poldrack-single-stim	s631	0	False
170.315	1.0	171.854	0.9	2.136	True	89.0	Orange-Blue	n/a	twobytwo	89.0	0.639	blue	2.0	task_switch	color	switch	stim	poldrack-single-stim	s631	0	False
173.354	1.0	174.824	0.9	2.272	True	71.0	Orange-Blue	stay	twobytwo	71.0	0.57	orange	2.0	cue_stay	color	stay	stim	poldrack-single-stim	s631	0	False
176.529	1.0	177.966	0.9	2.0	True	89.0	High-Low	n/a	twobytwo	89.0	0.537	orange	8.0	task_switch	magnitude	switch	stim	poldrack-single-stim	s631	0	False
178.632	1.0	179.505	0.1	2.816	True	71.0	High-Low	stay	twobytwo	71.0	0.773	orange	1.0	cue_stay	magnitude	stay	stim	poldrack-single-stim	s631	0	False
181.551	1.0	182.32	0.1	2.408	True	89.0	Magnitude	switch	twobytwo	89.0	0.669	blue	7.0	cue_switch	magnitude	stay	stim	poldrack-single-stim	s631	0	False
184.862	1.0	186.11	0.9	2.0	True	71.0	Magnitude	stay	twobytwo	71.0	0.348	orange	4.0	cue_stay	magnitude	stay	stim	poldrack-single-stim	s631	0	False
187.765	1.0	189.153	0.9	2.544	True	89.0	Magnitude	stay	twobytwo	89.0	0.488	blue	9.0	cue_stay	magnitude	stay	stim	poldrack-single-stim	s631	0	False
190.411	1.0	191.354	0.1	2.136	True	89.0	Orange-Blue	n/a	twobytwo	89.0	0.843	blue	3.0	task_switch	color	switch	stim	poldrack-single-stim	s631	0	False
192.65	1.0	193.608	0.1	2.0	True	71.0	High-Low	n/a	twobytwo	71.0	0.858	blue	2.0	task_switch	magnitude	switch	stim	poldrack-single-stim	s631	0	False
195.552	1.0	197.296	0.9	2.0	True	89.0	High-Low	stay	twobytwo	89.0	0.844	orange	7.0	cue_stay	magnitude	stay	stim	poldrack-single-stim	s631	0	False
198.455	1.0	200.026	0.9	2.136	True	71.0	Magnitude	switch	twobytwo	71.0	0.671	blue	2.0	cue_switch	magnitude	stay	stim	poldrack-single-stim	s631	0	False
200.693	1.0	201.533	0.1	2.136	True	89.0	Magnitude	stay	twobytwo	89.0	0.74	blue	6.0	cue_stay	magnitude	stay	stim	poldrack-single-stim	s631	0	False
203.732	1.0	205.264	0.9	2.272	False	89.0	Orange-Blue	n/a	twobytwo	71.0	0.632	blue	3.0	task_switch	color	switch	stim	poldrack-single-stim	s631	0	False
206.107	1.0	207.261	0.1	3.224	True	71.0	Color	switch	twobytwo	71.0	1.054	orange	1.0	cue_switch	color	stay	stim	poldrack-single-stim	s631	0	False
210.233	1.0	211.737	0.9	2.0	True	89.0	Orange-Blue	switch	twobytwo	89.0	0.604	blue	3.0	cue_switch	color	stay	stim	poldrack-single-stim	s631	0	False
213.137	1.0	214.71	0.9	2.0	True	71.0	Magnitude	n/a	twobytwo	71.0	0.673	orange	1.0	task_switch	magnitude	switch	stim	poldrack-single-stim	s631	0	False
215.24	1.0	216.007	0.1	2.272	True	89.0	Orange-Blue	n/a	twobytwo	89.0	0.667	blue	8.0	task_switch	color	switch	stim	poldrack-single-stim	s631	0	False
218.415	1.0	219.793	0.9	2.136	True	89.0	High-Low	n/a	twobytwo	89.0	0.478	orange	9.0	task_switch	magnitude	switch	stim	poldrack-single-stim	s631	0	False
234.158	1.0	234.968	0.1	2.0	True	71.0	Orange-Blue	stay	twobytwo	71.0	0.71	orange	8.0	cue_stay	color	stay	stim	poldrack-single-stim	s631	1	False
236.26	1.0	236.811	0.1	2.0	False	89.0	High-Low	n/a	twobytwo	71.0	0.451	orange	7.0	task_switch	magnitude	switch	stim	poldrack-single-stim	s631	0	False
239.163	1.0	240.528	0.9	2.0	True	71.0	Orange-Blue	n/a	twobytwo	71.0	0.465	orange	7.0	task_switch	color	switch	stim	poldrack-single-stim	s631	0	False
242.065	1.0	243.692	0.9	2.68	True	89.0	High-Low	n/a	twobytwo	89.0	0.727	orange	6.0	task_switch	magnitude	switch	stim	poldrack-single-stim	s631	0	False
244.848	1.0	245.642	0.1	2.0	True	71.0	Orange-Blue	n/a	twobytwo	71.0	0.694	orange	1.0	task_switch	color	switch	stim	poldrack-single-stim	s631	0	False
247.751	1.0	249.198	0.9	2.272	True	89.0	Orange-Blue	stay	twobytwo	89.0	0.547	blue	9.0	cue_stay	color	stay	stim	poldrack-single-stim	s631	0	False
250.126	1.0	250.775	0.1	2.0	True	89.0	Color	switch	twobytwo	89.0	0.549	blue	8.0	cue_switch	color	stay	stim	poldrack-single-stim	s631	0	False
253.028	1.0	254.471	0.9	2.272	True	89.0	Orange-Blue	switch	twobytwo	89.0	0.543	blue	8.0	cue_switch	color	stay	stim	poldrack-single-stim	s631	0	False
256.204	1.0	257.602	0.9	2.952	True	71.0	Magnitude	n/a	twobytwo	71.0	0.498	orange	2.0	task_switch	magnitude	switch	stim	poldrack-single-stim	s631	0	False
260.058	1.0	261.615	0.9	2.0	True	71.0	Color	n/a	twobytwo	71.0	0.657	orange	6.0	task_switch	color	switch	stim	poldrack-single-stim	s631	0	False
262.161	1.0	262.91	0.1	2.0	True	89.0	High-Low	n/a	twobytwo	89.0	0.649	blue	9.0	task_switch	magnitude	switch	stim	poldrack-single-stim	s631	0	False
265.064	1.0	266.529	0.9	2.0	True	71.0	Magnitude	switch	twobytwo	71.0	0.565	orange	3.0	cue_switch	magnitude	stay	stim	poldrack-single-stim	s631	0	False
267.166	1.0	267.982	0.1	2.0	True	71.0	Color	n/a	twobytwo	71.0	0.716	orange	7.0	task_switch	color	switch	stim	poldrack-single-stim	s631	0	False
269.269	1.0	270.234	0.1	2.136	True	89.0	Magnitude	n/a	twobytwo	89.0	0.865	orange	6.0	task_switch	magnitude	switch	stim	poldrack-single-stim	s631	0	False
271.508	1.0	272.214	0.1	2.0	True	89.0	High-Low	switch	twobytwo	89.0	0.606	blue	9.0	cue_switch	magnitude	stay	stim	poldrack-single-stim	s631	0	False
274.41	1.0	275.745	0.9	2.0	True	89.0	Color	n/a	twobytwo	89.0	0.435	blue	3.0	task_switch	color	switch	stim	poldrack-single-stim	s631	0	False
277.313	1.0	278.676	0.9	2.0	True	89.0	Orange-Blue	switch	twobytwo	89.0	0.463	blue	3.0	cue_switch	color	stay	stim	poldrack-single-stim	s631	0	False
279.416	1.0	280.162	0.1	2.272	True	71.0	Magnitude	n/a	twobytwo	71.0	0.646	blue	2.0	task_switch	magnitude	switch	stim	poldrack-single-stim	s631	0	False
281.79	1.0	282.67	0.1	2.136	True	71.0	Color	n/a	twobytwo	71.0	0.78	orange	7.0	task_switch	color	switch	stim	poldrack-single-stim	s631	0	False
284.829	1.0	286.207	0.9	2.0	True	89.0	Color	stay	twobytwo	89.0	0.478	blue	1.0	cue_stay	color	stay	stim	poldrack-single-stim	s631	0	False
287.732	1.0	289.135	0.9	2.136	True	89.0	High-Low	n/a	twobytwo	89.0	0.503	blue	6.0	task_switch	magnitude	switch	stim	poldrack-single-stim	s631	0	False
289.971	1.0	290.86	0.1	2.816	False	89.0	Color	n/a	twobytwo	71.0	0.789	blue	1.0	task_switch	color	switch	stim	poldrack-single-stim	s631	0	False
293.69	1.0	295.323	0.9	2.408	True	89.0	Color	stay	twobytwo	89.0	0.733	blue	7.0	cue_stay	color	stay	stim	poldrack-single-stim	s631	0	False
296.2	1.0	297.11	0.1	2.0	True	89.0	High-Low	n/a	twobytwo	89.0	0.81	orange	6.0	task_switch	magnitude	switch	stim	poldrack-single-stim	s631	0	False
299.103	1.0	300.66	0.9	2.136	True	71.0	Magnitude	switch	twobytwo	71.0	0.657	blue	2.0	cue_switch	magnitude	stay	stim	poldrack-single-stim	s631	0	False
301.341	1.0	302.319	0.1	2.136	False	71.0	Magnitude	stay	twobytwo	89.0	0.878	blue	1.0	cue_stay	magnitude	stay	stim	poldrack-single-stim	s631	0	False
304.38	1.0	306.012	0.9	2.136	False	71.0	Orange-Blue	n/a	twobytwo	89.0	0.732	orange	8.0	task_switch	color	switch	stim	poldrack-single-stim	s631	0	False
306.619	1.0	307.804	0.1	2.544	False	89.0	Orange-Blue	stay	twobytwo	71.0	1.085	blue	9.0	cue_stay	color	stay	stim	poldrack-single-stim	s631	0	False
310.066	1.0	312.032	0.9	2.136	True	71.0	Magnitude	n/a	twobytwo	71.0	1.066	orange	4.0	task_switch	magnitude	switch	stim	poldrack-single-stim	s631	0	False
312.304	1.0	313.094	0.1	2.0	True	89.0	High-Low	switch	twobytwo	89.0	0.69	blue	6.0	cue_switch	magnitude	stay	stim	poldrack-single-stim	s631	0	False
314.407	1.0	315.287	0.1	2.0	True	89.0	Magnitude	switch	twobytwo	89.0	0.78	blue	9.0	cue_switch	magnitude	stay	stim	poldrack-single-stim	s631	0	False
317.31	1.0	318.589	0.9	2.0	True	71.0	Color	n/a	twobytwo	71.0	0.379	orange	7.0	task_switch	color	switch	stim	poldrack-single-stim	s631	0	False
320.212	1.0	321.66	0.9	2.0	True	71.0	High-Low	n/a	twobytwo	71.0	0.548	orange	1.0	task_switch	magnitude	switch	stim	poldrack-single-stim	s631	0	False
322.315	1.0	323.131	0.1	2.136	True	89.0	High-Low	stay	twobytwo	89.0	0.716	blue	9.0	cue_stay	magnitude	stay	stim	poldrack-single-stim	s631	0	False
325.354	1.0	326.753	0.9	2.0	True	71.0	High-Low	stay	twobytwo	71.0	0.499	orange	3.0	cue_stay	magnitude	stay	stim	poldrack-single-stim	s631	0	False
327.457	1.0	328.409	0.1	2.0	True	89.0	Orange-Blue	n/a	twobytwo	89.0	0.852	blue	1.0	task_switch	color	switch	stim	poldrack-single-stim	s631	0	False
330.359	1.0	331.997	0.9	2.0	True	71.0	High-Low	n/a	twobytwo	71.0	0.738	blue	4.0	task_switch	magnitude	switch	stim	poldrack-single-stim	s631	0	False
333.262	1.0	335.045	0.9	2.136	True	89.0	Orange-Blue	n/a	twobytwo	89.0	0.883	blue	9.0	task_switch	color	switch	stim	poldrack-single-stim	s631	0	False
336.301	1.0	337.739	0.9	2.136	True	89.0	Magnitude	n/a	twobytwo	89.0	0.538	blue	7.0	task_switch	magnitude	switch	stim	poldrack-single-stim	s631	0	False
338.539	1.0	339.245	0.1	2.136	True	71.0	High-Low	switch	twobytwo	71.0	0.606	orange	3.0	cue_switch	magnitude	stay	stim	poldrack-single-stim	s631	0	False
341.578	1.0	343.14	0.9	2.136	True	89.0	Color	n/a	twobytwo	89.0	0.662	blue	4.0	task_switch	color	switch	stim	poldrack-single-stim	s631	0	False
343.817	1.0	344.462	0.1	2.68	True	89.0	Color	stay	twobytwo	89.0	0.545	blue	8.0	cue_stay	color	stay	stim	poldrack-single-stim	s631	0	False
346.599	1.0	347.315	0.1	2.544	True	89.0	Color	stay	twobytwo	89.0	0.616	blue	3.0	cue_stay	color	stay	stim	poldrack-single-stim	s631	0	False
349.246	1.0	349.917	0.1	2.272	True	89.0	Color	stay	twobytwo	89.0	0.571	blue	8.0	cue_stay	color	stay	stim	poldrack-single-stim	s631	0	False
352.42	1.0	353.758	0.9	2.272	True	71.0	Orange-Blue	switch	twobytwo	71.0	0.438	orange	9.0	cue_switch	color	stay	stim	poldrack-single-stim	s631	0	False
355.595	1.0	357.212	0.9	2.408	True	89.0	High-Low	n/a	twobytwo	89.0	0.717	orange	8.0	task_switch	magnitude	switch	stim	poldrack-single-stim	s631	0	False
358.106	1.0	358.958	0.1	2.136	False	89.0	Orange-Blue	n/a	twobytwo	71.0	0.752	blue	8.0	task_switch	color	switch	stim	poldrack-single-stim	s631	0	False
360.345	1.0	361.67	0.1	2.272	True	71.0	Orange-Blue	stay	twobytwo	71.0	1.225	orange	4.0	cue_stay	color	stay	stim	poldrack-single-stim	s631	0	False
362.72	1.0	363.435	0.1	2.0	True	71.0	Orange-Blue	stay	twobytwo	71.0	0.615	orange	3.0	cue_stay	color	stay	stim	poldrack-single-stim	s631	0	False
365.622	1.0	367.494	0.9	2.136	False	71.0	High-Low	n/a	twobytwo	89.0	0.972	blue	2.0	task_switch	magnitude	switch	stim	poldrack-single-stim	s631	0	False
368.661	1.0	370.414	0.9	2.272	True	89.0	Orange-Blue	n/a	twobytwo	89.0	0.853	blue	8.0	task_switch	color	switch	stim	poldrack-single-stim	s631	0	False
371.035	1.0	372.079	0.1	2.0	True	71.0	Orange-Blue	stay	twobytwo	71.0	0.944	orange	8.0	cue_stay	color	stay	stim	poldrack-single-stim	s631	0	False
373.138	1.0	373.964	0.1	2.68	True	71.0	Magnitude	n/a	twobytwo	71.0	0.726	blue	4.0	task_switch	magnitude	switch	stim	poldrack-single-stim	s631	0	False
376.72	1.0	378.772	0.9	2.0	True	71.0	High-Low	switch	twobytwo	71.0	1.152	orange	4.0	cue_switch	magnitude	stay	stim	poldrack-single-stim	s631	0	False
378.823	1.0	379.643	0.1	2.0	True	71.0	Color	n/a	twobytwo	71.0	0.72	orange	2.0	task_switch	color	switch	stim	poldrack-single-stim	s631	0	False
381.726	1.0	383.429	0.9	2.0	True	71.0	Color	stay	twobytwo	71.0	0.803	orange	9.0	cue_stay	color	stay	stim	poldrack-single-stim	s631	0	False
383.829	1.0	384.456	0.1	2.272	True	71.0	Orange-Blue	switch	twobytwo	71.0	0.527	orange	9.0	cue_switch	color	stay	stim	poldrack-single-stim	s631	0	False
386.204	1.0	386.82	0.1	2.0	True	71.0	Orange-Blue	stay	twobytwo	71.0	0.516	orange	7.0	cue_stay	color	stay	stim	poldrack-single-stim	s631	0	False
389.106	1.0	390.597	0.9	2.0	True	71.0	Magnitude	n/a	twobytwo	71.0	0.591	blue	3.0	task_switch	magnitude	switch	stim	poldrack-single-stim	s631	0	False
392.009	1.0	394.422	0.9	2.0	True	89.0	Orange-Blue	n/a	twobytwo	89.0	1.513	blue	7.0	task_switch	color	switch	stim	poldrack-single-stim	s631	0	False
394.911	1.0	396.361	0.9	2.68	True	89.0	Color	switch	twobytwo	89.0	0.55	blue	6.0	cue_switch	color	stay	stim	poldrack-single-stim	s631	0	False
397.694	1.0	398.527	0.1	2.0	True	71.0	Magnitude	n/a	twobytwo	71.0	0.733	orange	1.0	task_switch	magnitude	switch	stim	poldrack-single-stim	s631	0	False
400.597	1.0	402.146	0.9	2.136	True	89.0	Color	n/a	twobytwo	89.0	0.649	blue	2.0	task_switch	color	switch	stim	poldrack-single-stim	s631	0	False
403.636	1.0	405.275	0.9	2.408	True	71.0	Color	stay	twobytwo	71.0	0.739	orange	2.0	cue_stay	color	stay	stim	poldrack-single-stim	s631	0	False
406.947	1.0	408.355	0.9	2.136	True	89.0	Magnitude	n/a	twobytwo	89.0	0.508	orange	8.0	task_switch	magnitude	switch	stim	poldrack-single-stim	s631	0	False
409.185	1.0	410.261	0.1	2.0	True	71.0	Magnitude	stay	twobytwo	71.0	0.976	orange	1.0	cue_stay	magnitude	stay	stim	poldrack-single-stim	s631	0	False
411.288	1.0	412.302	0.1	2.0	False	89.0	High-Low	switch	twobytwo	71.0	0.914	blue	7.0	cue_switch	magnitude	stay	stim	poldrack-single-stim	s631	0	False
414.191	1.0	415.926	0.9	2.544	True	71.0	High-Low	stay	twobytwo	71.0	0.835	orange	4.0	cue_stay	magnitude	stay	stim	poldrack-single-stim	s631	0	False
417.638	1.0	419.023	0.9	2.136	True	89.0	High-Low	stay	twobytwo	89.0	0.485	blue	9.0	cue_stay	magnitude	stay	stim	poldrack-single-stim	s631	0	False
419.876	1.0	420.839	0.1	2.544	True	89.0	Orange-Blue	n/a	twobytwo	89.0	0.863	blue	3.0	task_switch	color	switch	stim	poldrack-single-stim	s631	0	False
422.523	1.0	423.661	0.1	2.68	True	71.0	Magnitude	n/a	twobytwo	71.0	1.038	blue	2.0	task_switch	magnitude	switch	stim	poldrack-single-stim	s631	0	False
426.105	1.0	427.967	0.9	2.0	True	89.0	Magnitude	stay	twobytwo	89.0	0.962	orange	7.0	cue_stay	magnitude	stay	stim	poldrack-single-stim	s631	0	False
429.008	1.0	430.503	0.9	2.272	True	71.0	High-Low	switch	twobytwo	71.0	0.595	blue	2.0	cue_switch	magnitude	stay	stim	poldrack-single-stim	s631	0	False
431.382	1.0	432.571	0.1	3.088	True	89.0	High-Low	stay	twobytwo	89.0	1.089	blue	6.0	cue_stay	magnitude	stay	stim	poldrack-single-stim	s631	0	False
435.373	1.0	436.805	0.9	2.0	True	89.0	Orange-Blue	n/a	twobytwo	89.0	0.532	blue	3.0	task_switch	color	switch	stim	poldrack-single-stim	s631	0	False
437.476	1.0	438.27	0.1	2.136	True	71.0	Color	switch	twobytwo	71.0	0.694	orange	1.0	cue_switch	color	stay	stim	poldrack-single-stim	s631	0	False
440.515	1.0	442.04	0.9	2.136	True	89.0	Orange-Blue	switch	twobytwo	89.0	0.625	blue	3.0	cue_switch	color	stay	stim	poldrack-single-stim	s631	0	False
443.554	1.0	445.086	0.9	2.0	True	71.0	Magnitude	n/a	twobytwo	71.0	0.632	orange	1.0	task_switch	magnitude	switch	stim	poldrack-single-stim	s631	0	False
445.656	1.0	446.581	0.1	2.272	True	89.0	Orange-Blue	n/a	twobytwo	89.0	0.825	blue	8.0	task_switch	color	switch	stim	poldrack-single-stim	s631	0	False
448.831	1.0	450.628	0.9	2.0	True	89.0	High-Low	n/a	twobytwo	89.0	0.897	orange	9.0	task_switch	magnitude	switch	stim	poldrack-single-stim	s631	0	False
464.439	1.0	465.092	0.1	2.136	True	89.0	High-Low	stay	twobytwo	89.0	0.553	orange	8.0	cue_stay	magnitude	stay	stim	poldrack-single-stim	s631	1	False
466.678	1.0	467.625	0.1	2.136	True	71.0	Color	n/a	twobytwo	71.0	0.847	orange	7.0	task_switch	color	switch	stim	poldrack-single-stim	s631	0	False
469.716	1.0	471.171	0.9	2.544	True	89.0	High-Low	n/a	twobytwo	89.0	0.555	orange	7.0	task_switch	magnitude	switch	stim	poldrack-single-stim	s631	0	False
473.163	1.0	474.614	0.9	2.0	True	71.0	Color	n/a	twobytwo	71.0	0.551	orange	6.0	task_switch	color	switch	stim	poldrack-single-stim	s631	0	False
475.265	1.0	475.917	0.1	2.136	True	71.0	Magnitude	n/a	twobytwo	71.0	0.552	orange	1.0	task_switch	magnitude	switch	stim	poldrack-single-stim	s631	0	False
478.304	1.0	479.663	0.9	2.136	True	89.0	Magnitude	stay	twobytwo	89.0	0.459	blue	9.0	cue_stay	magnitude	stay	stim	poldrack-single-stim	s631	0	False
480.544	1.0	481.313	0.1	2.136	True	89.0	High-Low	switch	twobytwo	89.0	0.669	blue	8.0	cue_switch	magnitude	stay	stim	poldrack-single-stim	s631	0	False
483.582	1.0	484.917	0.9	2.0	True	89.0	Magnitude	switch	twobytwo	89.0	0.435	blue	8.0	cue_switch	magnitude	stay	stim	poldrack-single-stim	s631	0	False
486.485	1.0	487.746	0.9	2.136	True	71.0	Color	n/a	twobytwo	71.0	0.361	orange	2.0	task_switch	color	switch	stim	poldrack-single-stim	s631	0	False
489.524	1.0	490.977	0.9	2.0	True	89.0	Magnitude	n/a	twobytwo	89.0	0.553	orange	6.0	task_switch	magnitude	switch	stim	poldrack-single-stim	s631	0	False
491.627	1.0	492.458	0.1	2.136	True	89.0	Color	n/a	twobytwo	89.0	0.731	blue	9.0	task_switch	color	switch	stim	poldrack-single-stim	s631	0	False
494.665	1.0	496.098	0.9	2.816	True	71.0	Orange-Blue	switch	twobytwo	71.0	0.533	orange	3.0	cue_switch	color	stay	stim	poldrack-single-stim	s631	0	False
497.584	1.0	498.208	0.1	2.136	True	89.0	Magnitude	n/a	twobytwo	89.0	0.524	orange	7.0	task_switch	magnitude	switch	stim	poldrack-single-stim	s631	0	False
499.823	1.0	500.654	0.1	2.0	True	71.0	Orange-Blue	n/a	twobytwo	71.0	0.731	orange	6.0	task_switch	color	switch	stim	poldrack-single-stim	s631	0	False
501.926	1.0	502.744	0.1	2.0	True	89.0	Color	switch	twobytwo	89.0	0.718	blue	9.0	cue_switch	color	stay	stim	poldrack-single-stim	s631	0	False
504.828	1.0	506.559	0.9	2.272	True	71.0	High-Low	n/a	twobytwo	71.0	0.831	blue	3.0	task_switch	magnitude	switch	stim	poldrack-single-stim	s631	0	False
508.003	1.0	509.368	0.9	2.0	True	71.0	Magnitude	switch	twobytwo	71.0	0.465	blue	3.0	cue_switch	magnitude	stay	stim	poldrack-single-stim	s631	0	False
510.105	1.0	510.949	0.1	2.0	True	89.0	Color	n/a	twobytwo	89.0	0.744	blue	2.0	task_switch	color	switch	stim	poldrack-single-stim	s631	0	False
512.208	1.0	513.329	0.1	2.0	True	89.0	High-Low	n/a	twobytwo	89.0	1.021	orange	7.0	task_switch	magnitude	switch	stim	poldrack-single-stim	s631	0	False
515.11	1.0	516.553	0.9	2.408	True	71.0	High-Low	stay	twobytwo	71.0	0.543	blue	1.0	cue_stay	magnitude	stay	stim	poldrack-single-stim	s631	0	False
518.421	1.0	519.956	0.9	2.272	True	89.0	Color	n/a	twobytwo	89.0	0.635	blue	6.0	task_switch	color	switch	stim	poldrack-single-stim	s631	0	False
520.796	1.0	521.489	0.1	2.136	True	71.0	Magnitude	n/a	twobytwo	71.0	0.593	blue	1.0	task_switch	magnitude	switch	stim	poldrack-single-stim	s631	0	False
523.835	1.0	525.231	0.9	2.0	True	89.0	Magnitude	stay	twobytwo	89.0	0.496	blue	7.0	cue_stay	magnitude	stay	stim	poldrack-single-stim	s631	0	False
525.938	1.0	526.673	0.1	2.0	True	71.0	Orange-Blue	n/a	twobytwo	71.0	0.635	orange	6.0	task_switch	color	switch	stim	poldrack-single-stim	s631	0	False
528.841	1.0	530.168	0.9	2.136	True	89.0	Color	switch	twobytwo	89.0	0.427	blue	2.0	cue_switch	color	stay	stim	poldrack-single-stim	s631	0	False
531.08	1.0	531.768	0.1	2.0	False	89.0	Color	stay	twobytwo	71.0	0.588	blue	1.0	cue_stay	color	stay	stim	poldrack-single-stim	s631	0	False
533.983	1.0	535.959	0.9	2.136	True	89.0	Magnitude	n/a	twobytwo	89.0	1.076	orange	8.0	task_switch	magnitude	switch	stim	poldrack-single-stim	s631	0	False
536.222	1.0	536.921	0.1	2.408	True	89.0	Magnitude	stay	twobytwo	89.0	0.599	blue	9.0	cue_stay	magnitude	stay	stim	poldrack-single-stim	s631	0	False
539.533	1.0	541.044	0.9	2.136	True	71.0	Color	n/a	twobytwo	71.0	0.611	orange	4.0	task_switch	color	switch	stim	poldrack-single-stim	s631	0	False
541.771	1.0	542.499	0.1	2.0	True	89.0	Orange-Blue	switch	twobytwo	89.0	0.628	blue	6.0	cue_switch	color	stay	stim	poldrack-single-stim	s631	0	False
543.874	1.0	545.068	0.1	2.136	True	89.0	Color	switch	twobytwo	89.0	1.094	blue	9.0	cue_switch	color	stay	stim	poldrack-single-stim	s631	0	False
546.913	1.0	548.697	0.9	2.272	True	89.0	High-Low	n/a	twobytwo	89.0	0.884	orange	7.0	task_switch	magnitude	switch	stim	poldrack-single-stim	s631	0	False
550.088	1.0	551.444	0.9	2.0	True	71.0	Color	n/a	twobytwo	71.0	0.456	orange	1.0	task_switch	color	switch	stim	poldrack-single-stim	s631	0	False
552.191	1.0	553.04	0.1	2.408	True	89.0	Color	stay	twobytwo	89.0	0.749	blue	9.0	cue_stay	color	stay	stim	poldrack-single-stim	s631	0	False
555.502	1.0	557.103	0.9	2.0	False	71.0	Color	stay	twobytwo	89.0	0.701	orange	3.0	cue_stay	color	stay	stim	poldrack-single-stim	s631	0	False
557.605	1.0	558.623	0.1	2.136	True	71.0	High-Low	n/a	twobytwo	71.0	0.918	blue	1.0	task_switch	magnitude	switch	stim	poldrack-single-stim	s631	0	False
560.644	1.0	562.476	0.9	2.408	True	89.0	Color	n/a	twobytwo	89.0	0.932	blue	4.0	task_switch	color	switch	stim	poldrack-single-stim	s631	0	False
563.954	1.0	565.375	0.9	2.136	True	89.0	Magnitude	n/a	twobytwo	89.0	0.521	blue	9.0	task_switch	magnitude	switch	stim	poldrack-single-stim	s631	0	False
566.994	1.0	568.295	0.9	2.408	True	89.0	Orange-Blue	n/a	twobytwo	89.0	0.401	blue	7.0	task_switch	color	switch	stim	poldrack-single-stim	s631	0	False
569.504	1.0	570.129	0.1	2.136	True	71.0	Color	switch	twobytwo	71.0	0.525	orange	3.0	cue_switch	color	stay	stim	poldrack-single-stim	s631	0	False
572.544	1.0	574.044	0.9	2.0	False	71.0	High-Low	n/a	twobytwo	89.0	0.6	blue	4.0	task_switch	magnitude	switch	stim	poldrack-single-stim	s631	0	False
574.647	1.0	575.712	0.1	2.272	True	89.0	High-Low	stay	twobytwo	89.0	0.965	blue	8.0	cue_stay	magnitude	stay	stim	poldrack-single-stim	s631	0	False
577.022	1.0	577.94	0.1	2.0	True	71.0	High-Low	stay	twobytwo	71.0	0.818	blue	3.0	cue_stay	magnitude	stay	stim	poldrack-single-stim	s631	0	False
579.125	1.0	579.888	0.1	2.272	True	89.0	High-Low	stay	twobytwo	89.0	0.663	blue	8.0	cue_stay	magnitude	stay	stim	poldrack-single-stim	s631	0	False
582.3	1.0	583.707	0.9	2.272	True	89.0	Magnitude	switch	twobytwo	89.0	0.507	orange	9.0	cue_switch	magnitude	stay	stim	poldrack-single-stim	s631	0	False
585.475	1.0	586.813	0.9	2.952	True	71.0	Orange-Blue	n/a	twobytwo	71.0	0.438	orange	8.0	task_switch	color	switch	stim	poldrack-single-stim	s631	0	False
588.53	1.0	589.199	0.1	2.68	True	89.0	Magnitude	n/a	twobytwo	89.0	0.569	blue	8.0	task_switch	magnitude	switch	stim	poldrack-single-stim	s631	0	False
591.314	1.0	591.967	0.1	2.136	True	71.0	Magnitude	stay	twobytwo	71.0	0.553	orange	4.0	cue_stay	magnitude	stay	stim	poldrack-single-stim	s631	0	False
593.553	1.0	594.293	0.1	2.272	True	71.0	Magnitude	stay	twobytwo	71.0	0.64	orange	3.0	cue_stay	magnitude	stay	stim	poldrack-single-stim	s631	0	False
596.727	1.0	598.454	0.9	2.272	True	89.0	Orange-Blue	n/a	twobytwo	89.0	0.827	blue	2.0	task_switch	color	switch	stim	poldrack-single-stim	s631	0	False
599.902	1.0	601.756	0.9	2.136	False	89.0	High-Low	n/a	twobytwo	71.0	0.954	blue	8.0	task_switch	magnitude	switch	stim	poldrack-single-stim	s631	0	False
602.141	1.0	603.019	0.1	2.408	True	89.0	High-Low	stay	twobytwo	89.0	0.778	orange	8.0	cue_stay	magnitude	stay	stim	poldrack-single-stim	s631	0	False
604.651	1.0	606.23	0.1	2.136	True	89.0	Orange-Blue	n/a	twobytwo	89.0	1.479	blue	4.0	task_switch	color	switch	stim	poldrack-single-stim	s631	0	False
607.69	1.0	609.31	0.9	2.136	True	71.0	Color	switch	twobytwo	71.0	0.72	orange	4.0	cue_switch	color	stay	stim	poldrack-single-stim	s631	0	False
609.928	1.0	611.006	0.1	2.0	True	71.0	High-Low	n/a	twobytwo	71.0	0.978	orange	2.0	task_switch	magnitude	switch	stim	poldrack-single-stim	s631	0	False
612.831	1.0	614.112	0.9	2.0	True	89.0	High-Low	stay	twobytwo	89.0	0.381	orange	9.0	cue_stay	magnitude	stay	stim	poldrack-single-stim	s631	0	False
614.934	1.0	615.547	0.1	2.0	True	89.0	Magnitude	switch	twobytwo	89.0	0.513	orange	9.0	cue_switch	magnitude	stay	stim	poldrack-single-stim	s631	0	False
617.037	1.0	617.639	0.1	2.0	True	89.0	Magnitude	stay	twobytwo	89.0	0.502	orange	7.0	cue_stay	magnitude	stay	stim	poldrack-single-stim	s631	0	False
619.939	1.0	621.256	0.9	2.0	False	89.0	Color	n/a	twobytwo	71.0	0.417	blue	3.0	task_switch	color	switch	stim	poldrack-single-stim	s631	0	False
622.842	1.0	624.461	0.9	2.272	True	89.0	Magnitude	n/a	twobytwo	89.0	0.719	blue	7.0	task_switch	magnitude	switch	stim	poldrack-single-stim	s631	0	False
626.018	1.0	627.515	0.9	2.408	True	89.0	High-Low	switch	twobytwo	89.0	0.597	blue	6.0	cue_switch	magnitude	stay	stim	poldrack-single-stim	s631	0	False
628.528	1.0	629.224	0.1	2.0	True	71.0	Orange-Blue	n/a	twobytwo	71.0	0.596	orange	1.0	task_switch	color	switch	stim	poldrack-single-stim	s631	0	False
631.431	1.0	632.919	0.9	2.136	True	71.0	Magnitude	n/a	twobytwo	71.0	0.588	blue	2.0	task_switch	magnitude	switch	stim	poldrack-single-stim	s631	0	False
634.47	1.0	636.341	0.9	2.0	True	71.0	Magnitude	stay	twobytwo	71.0	0.971	orange	2.0	cue_stay	magnitude	stay	stim	poldrack-single-stim	s631	0	False
637.374	1.0	638.826	0.9	2.136	False	71.0	Color	n/a	twobytwo	89.0	0.552	orange	8.0	task_switch	color	switch	stim	poldrack-single-stim	s631	0	False
639.614	1.0	640.341	0.1	2.544	True	71.0	Color	stay	twobytwo	71.0	0.627	orange	1.0	cue_stay	color	stay	stim	poldrack-single-stim	s631	0	False
642.261	1.0	643.05	0.1	2.68	True	89.0	Orange-Blue	switch	twobytwo	89.0	0.689	blue	7.0	cue_switch	color	stay	stim	poldrack-single-stim	s631	0	False
645.843	1.0	647.184	0.9	3.088	True	71.0	Orange-Blue	stay	twobytwo	71.0	0.441	orange	4.0	cue_stay	color	stay	stim	poldrack-single-stim	s631	0	False
649.834	1.0	651.521	0.9	2.136	False	89.0	Orange-Blue	stay	twobytwo	71.0	0.787	blue	9.0	cue_stay	color	stay	stim	poldrack-single-stim	s631	0	False
652.073	1.0	653.248	0.1	2.544	True	71.0	High-Low	n/a	twobytwo	71.0	1.075	blue	3.0	task_switch	magnitude	switch	stim	poldrack-single-stim	s631	0	False
654.721	1.0	655.601	0.1	2.0	True	89.0	Color	n/a	twobytwo	89.0	0.78	blue	2.0	task_switch	color	switch	stim	poldrack-single-stim	s631	0	False
657.624	1.0	659.173	0.9	2.136	True	71.0	Color	stay	twobytwo	71.0	0.649	orange	7.0	cue_stay	color	stay	stim	poldrack-single-stim	s631	0	False
660.664	1.0	662.875	0.9	2.0	True	89.0	Orange-Blue	switch	twobytwo	89.0	1.311	blue	2.0	cue_switch	color	stay	stim	poldrack-single-stim	s631	0	False
662.766	1.0	663.47	0.1	2.408	True	89.0	Orange-Blue	stay	twobytwo	89.0	0.604	blue	6.0	cue_stay	color	stay	stim	poldrack-single-stim	s631	0	False
666.077	1.0	667.746	0.9	2.0	True	71.0	High-Low	n/a	twobytwo	71.0	0.769	blue	3.0	task_switch	magnitude	switch	stim	poldrack-single-stim	s631	0	False
668.18	1.0	668.793	0.1	2.0	True	71.0	Magnitude	switch	twobytwo	71.0	0.513	orange	1.0	cue_switch	magnitude	stay	stim	poldrack-single-stim	s631	0	False
671.083	1.0	672.49	0.9	2.0	True	71.0	High-Low	switch	twobytwo	71.0	0.507	blue	3.0	cue_switch	magnitude	stay	stim	poldrack-single-stim	s631	0	False
673.986	1.0	675.758	0.9	2.68	True	71.0	Orange-Blue	n/a	twobytwo	71.0	0.872	orange	1.0	task_switch	color	switch	stim	poldrack-single-stim	s631	0	False
676.769	1.0	677.509	0.1	2.272	True	89.0	Magnitude	n/a	twobytwo	89.0	0.64	blue	8.0	task_switch	magnitude	switch	stim	poldrack-single-stim	s631	0	False
679.944	1.0	681.318	0.9	2.408	True	71.0	Color	n/a	twobytwo	71.0	0.474	orange	9.0	task_switch	color	switch	stim	poldrack-single-stim	s631	0	False
