onset	duration	movement_onset	EV	action	block_duration	experiment_exp_id	gain_amount	gain_probability	key_press	loss_amount	loss_probability	num_cards	num_click_in_round	num_loss_cards	risk	response_time	total_cards	trial_id	trial_type	worker_id	junk	feedback
3.017	3.269	6.286	-1.381106679100506	draw_card	3.269	columbia_card_task_fmri	12.0	0.8333333333333334	89.0	-70.0	0.1666666666666666	6.0	1.0	1.0	-0.0696184455415362	3.269	1.0	stim	poldrack-single-stim	s633	False	0
7.042	1.5	6.291	n/a	-1.0	2.318	columbia_card_task_fmri	n/a	n/a	-1.0	n/a	n/a	n/a	n/a	n/a	n/a	n/a	n/a	ITI	poldrack-single-stim	s633	False	0
8.612	3.886	12.498	-0.5477733457671722	draw_card	3.886	columbia_card_task_fmri	14.0	0.8333333333333334	89.0	-75.0	0.1666666666666666	6.0	1.0	1.0	2.5390225983996544	3.886	n/a	stim	poldrack-single-stim	s633	False	1
12.498	0.966	13.464	-3.514440012433839	end_round	0.966	columbia_card_task_fmri	14.0	0.8	71.0	-75.0	0.2	6.0	2.0	1.0	4.970596972433249	0.966	1.0	stim	poldrack-single-stim	s633	False	1
14.221	1.5	13.47	n/a	-1.0	2.318	columbia_card_task_fmri	n/a	n/a	-1.0	n/a	n/a	n/a	n/a	n/a	n/a	n/a	n/a	ITI	poldrack-single-stim	s633	False	0
15.794	2.822	18.616	1.118893320899494	draw_card	2.822	columbia_card_task_fmri	15.0	0.8333333333333334	89.0	-70.0	0.1666666666666666	6.0	1.0	1.0	1.0483684571875749	2.822	n/a	stim	poldrack-single-stim	s633	False	1
18.617	3.063	21.68	-1.71444001243384	end_round	3.063	columbia_card_task_fmri	15.0	0.8	71.0	-70.0	0.2	6.0	2.0	1.0	3.370650865614735	3.063	1.0	stim	poldrack-single-stim	s633	False	1
22.434	1.5	21.683	n/a	-1.0	2.862	columbia_card_task_fmri	n/a	n/a	-1.0	n/a	n/a	n/a	n/a	n/a	n/a	n/a	n/a	ITI	poldrack-single-stim	s633	False	0
24.548	3.666	28.214	1.952226654232828	draw_card	3.666	columbia_card_task_fmri	17.0	0.8333333333333334	89.0	-75.0	0.1666666666666666	6.0	1.0	1.0	3.6570165049986727	3.666	n/a	stim	poldrack-single-stim	s633	False	1
28.216	3.44	31.656	-1.1144400124338385	draw_card	3.44	columbia_card_task_fmri	17.0	0.8	89.0	-75.0	0.2	6.0	2.0	1.0	6.170559627829	3.44	n/a	stim	poldrack-single-stim	s633	False	1
31.657	0.66	32.317	-5.71444001243384	end_round	0.66	columbia_card_task_fmri	17.0	0.75	71.0	-75.0	0.25	6.0	3.0	1.0	9.207643736448944	0.66	2.0	stim	poldrack-single-stim	s633	False	1
33.071	1.5	32.32	n/a	-1.0	2.726	columbia_card_task_fmri	n/a	n/a	-1.0	n/a	n/a	n/a	n/a	n/a	n/a	n/a	n/a	ITI	poldrack-single-stim	s633	False	0
35.05	3.345	38.395	3.28555998756616	draw_card	3.345	columbia_card_task_fmri	24.0	0.75	89.0	-60.0	0.25	8.0	1.0	2.0	5.743639590773469	3.345	n/a	stim	poldrack-single-stim	s633	False	1
38.396	0.979	39.375	0.2855599875661599	end_round	0.979	columbia_card_task_fmri	24.0	0.7142857142857143	71.0	-60.0	0.2857142857142857	8.0	2.0	2.0	7.317858052866001	0.979	1.0	stim	poldrack-single-stim	s633	False	1
40.132	1.5	39.381	n/a	-1.0	2.25	columbia_card_task_fmri	n/a	n/a	-1.0	n/a	n/a	n/a	n/a	n/a	n/a	n/a	n/a	ITI	poldrack-single-stim	s633	False	0
41.634	4.108	45.742	3.28555998756616	draw_card	4.108	columbia_card_task_fmri	29.0	0.75	89.0	-75.0	0.25	8.0	1.0	2.0	14.403678070201188	4.108	1.0	stim	poldrack-single-stim	s633	False	0
46.497	1.5	45.746	n/a	-1.0	2.318	columbia_card_task_fmri	n/a	n/a	-1.0	n/a	n/a	n/a	n/a	n/a	n/a	n/a	n/a	ITI	poldrack-single-stim	s633	False	0
48.067	1.237	49.304	-0.9366622346560596	draw_card	1.237	columbia_card_task_fmri	17.0	0.7777777777777778	89.0	-65.0	0.2222222222222222	9.0	1.0	2.0	3.461303867438609	1.237	n/a	stim	poldrack-single-stim	s633	False	1
49.307	2.811	52.118	-3.21444001243384	draw_card	2.811	columbia_card_task_fmri	17.0	0.75	89.0	-65.0	0.25	9.0	2.0	2.0	4.877641525846762	2.811	n/a	stim	poldrack-single-stim	s633	False	1
52.119	1.16	53.279	-6.143011441005267	end_round	1.16	columbia_card_task_fmri	17.0	0.7142857142857143	71.0	-65.0	0.2857142857142857	9.0	3.0	2.0	6.414376354752477	1.16	2.0	stim	poldrack-single-stim	s633	False	1
54.034	1.5	53.283	n/a	-1.0	2.454	columbia_card_task_fmri	n/a	n/a	-1.0	n/a	n/a	n/a	n/a	n/a	n/a	n/a	n/a	ITI	poldrack-single-stim	s633	False	0
55.739	3.333	59.072	3.38555998756616	draw_card	3.333	columbia_card_task_fmri	14.0	0.9	89.0	-95.0	0.1	10.0	1.0	1.0	2.0706985369695303	3.333	n/a	stim	poldrack-single-stim	s633	False	1
59.074	2.288	61.362	2.174448876455048	draw_card	2.288	columbia_card_task_fmri	14.0	0.8888888888888888	89.0	-95.0	0.1111111111111111	10.0	2.0	1.0	3.62603710290734	2.288	n/a	stim	poldrack-single-stim	s633	False	1
61.364	1.186	62.55	0.66055998756616	end_round	1.186	columbia_card_task_fmri	14.0	0.875	71.0	-95.0	0.125	10.0	3.0	1.0	5.418944341526107	1.186	2.0	stim	poldrack-single-stim	s633	False	1
63.305	1.5	62.554	n/a	-1.0	2.522	columbia_card_task_fmri	n/a	n/a	-1.0	n/a	n/a	n/a	n/a	n/a	n/a	n/a	n/a	ITI	poldrack-single-stim	s633	False	0
65.08	3.197	68.277	-0.71444001243384	draw_card	3.197	columbia_card_task_fmri	15.0	0.8	89.0	-65.0	0.2	10.0	1.0	2.0	1.370725810391768	3.197	n/a	stim	poldrack-single-stim	s633	False	1
68.279	1.985	70.264	-2.4922177902116167	draw_card	1.985	columbia_card_task_fmri	15.0	0.7777777777777778	89.0	-65.0	0.2222222222222222	10.0	2.0	2.0	2.6298543464166717	1.985	n/a	stim	poldrack-single-stim	s633	False	1
70.266	2.328	72.594	-4.71444001243384	draw_card	2.328	columbia_card_task_fmri	15.0	0.75	89.0	-65.0	0.25	10.0	3.0	2.0	4.01164482779496	2.328	n/a	stim	poldrack-single-stim	s633	False	1
72.596	0.469	73.065	-7.5715828695766945	end_round	0.469	columbia_card_task_fmri	15.0	0.7142857142857143	71.0	-65.0	0.2857142857142857	10.0	4.0	2.0	5.510895966818666	0.469	3.0	stim	poldrack-single-stim	s633	False	1
73.82	1.5	73.069	n/a	-1.0	2.318	columbia_card_task_fmri	n/a	n/a	-1.0	n/a	n/a	n/a	n/a	n/a	n/a	n/a	n/a	ITI	poldrack-single-stim	s633	False	0
75.39	1.156	76.546	0.8855599875661614	draw_card	1.156	columbia_card_task_fmri	17.0	0.8	89.0	-65.0	0.2	10.0	1.0	2.0	2.1706947357902493	1.156	n/a	stim	poldrack-single-stim	s633	False	1
76.548	1.79	78.338	-0.9366622346560596	draw_card	1.79	columbia_card_task_fmri	17.0	0.7777777777777778	89.0	-65.0	0.2222222222222222	10.0	2.0	2.0	3.461303867438609	1.79	2.0	stim	poldrack-single-stim	s633	False	0
79.093	1.5	78.342	n/a	-1.0	2.522	columbia_card_task_fmri	n/a	n/a	-1.0	n/a	n/a	n/a	n/a	n/a	n/a	n/a	n/a	ITI	poldrack-single-stim	s633	False	0
80.867	1.851	82.718	-0.5477733457671722	draw_card	1.851	columbia_card_task_fmri	13.0	0.8333333333333334	89.0	-70.0	0.1666666666666666	12.0	1.0	2.0	0.3030434771912844	1.851	n/a	stim	poldrack-single-stim	s633	False	1
82.72	2.574	85.294	-1.8053491033429332	draw_card	2.574	columbia_card_task_fmri	13.0	0.8181818181818181	89.0	-70.0	0.1818181818181818	12.0	2.0	2.0	1.3833777641970355	2.574	n/a	stim	poldrack-single-stim	s633	False	1
85.296	3.231	88.527	-3.31444001243384	draw_card	3.231	columbia_card_task_fmri	13.0	0.8	89.0	-70.0	0.2	12.0	3.0	2.0	2.570679760047	3.231	n/a	stim	poldrack-single-stim	s633	False	1
88.529	0.755	89.284	-5.158884456878285	end_round	0.755	columbia_card_task_fmri	13.0	0.7777777777777778	71.0	-70.0	0.2222222222222222	12.0	4.0	2.0	3.877029168251383	0.755	3.0	stim	poldrack-single-stim	s633	False	1
90.041	1.5	89.29	n/a	-1.0	2.998	columbia_card_task_fmri	n/a	n/a	-1.0	n/a	n/a	n/a	n/a	n/a	n/a	n/a	n/a	ITI	poldrack-single-stim	s633	False	0
92.291	2.448	94.739	-0.5477733457671722	draw_card	2.448	columbia_card_task_fmri	15.0	0.8333333333333334	89.0	-80.0	0.1666666666666666	12.0	1.0	2.0	4.775012942974335	2.448	n/a	stim	poldrack-single-stim	s633	False	1
94.741	2.437	97.178	-1.987167285161115	draw_card	2.437	columbia_card_task_fmri	15.0	0.8181818181818181	89.0	-80.0	0.1818181818181818	12.0	2.0	2.0	6.011552188180097	2.437	n/a	stim	poldrack-single-stim	s633	False	1
97.18	1.09	98.27	-3.71444001243384	end_round	1.09	columbia_card_task_fmri	15.0	0.8	71.0	-80.0	0.2	12.0	3.0	2.0	7.37052464172811	1.09	2.0	stim	poldrack-single-stim	s633	False	1
99.025	1.5	98.274	n/a	-1.0	2.318	columbia_card_task_fmri	n/a	n/a	-1.0	n/a	n/a	n/a	n/a	n/a	n/a	n/a	n/a	ITI	poldrack-single-stim	s633	False	0
100.595	2.583	103.178	-1.5144400124338389	draw_card	2.583	columbia_card_task_fmri	14.0	0.8	89.0	-65.0	0.2	15.0	1.0	3.0	0.9707419376810656	2.583	n/a	stim	poldrack-single-stim	s633	False	1
103.181	1.776	104.957	-2.643011441005267	draw_card	1.776	columbia_card_task_fmri	14.0	0.7857142857142857	89.0	-65.0	0.2142857142857142	15.0	2.0	3.0	1.7864558326414368	1.776	n/a	stim	poldrack-single-stim	s633	False	1
104.958	1.45	106.408	-3.945209243203072	draw_card	1.45	columbia_card_task_fmri	14.0	0.7692307692307692	89.0	-65.0	0.2307692307692307	15.0	3.0	3.0	2.655355130445457	1.45	3.0	stim	poldrack-single-stim	s633	False	0
107.165	1.5	106.414	n/a	-1.0	2.25	columbia_card_task_fmri	n/a	n/a	-1.0	n/a	n/a	n/a	n/a	n/a	n/a	n/a	n/a	ITI	poldrack-single-stim	s633	False	0
108.668	2.022	110.69	-1.58944001243384	draw_card	2.022	columbia_card_task_fmri	1.0	0.9375	89.0	-45.0	0.0625	16.0	1.0	1.0	-19.49206009154808	2.022	n/a	stim	poldrack-single-stim	s633	False	1
110.692	1.196	111.888	-1.7811066791005064	draw_card	1.196	columbia_card_task_fmri	1.0	0.9333333333333332	89.0	-45.0	0.0666666666666666	16.0	2.0	1.0	-19.152579542681707	1.196	n/a	stim	poldrack-single-stim	s633	False	1
111.89	0.153	112.043	-2.000154298148125	draw_card	0.153	columbia_card_task_fmri	1.0	0.9285714285714286	89.0	-45.0	0.0714285714285714	16.0	3.0	1.0	-18.780295840690144	0.153	n/a	stim	poldrack-single-stim	s633	False	1
112.045	1.956	114.001	-2.2529015508953782	draw_card	1.956	columbia_card_task_fmri	1.0	0.9230769230769232	89.0	-45.0	0.0769230769230769	16.0	4.0	1.0	-18.369632131692555	1.956	n/a	stim	poldrack-single-stim	s633	False	1
114.003	4.021	118.024	-2.5477733457671734	draw_card	4.021	columbia_card_task_fmri	1.0	0.9166666666666666	89.0	-45.0	0.0833333333333333	16.0	5.0	1.0	-17.91361339147408	4.021	n/a	stim	poldrack-single-stim	s633	False	1
118.027	2.972	120.999	-2.8962581942520216	draw_card	2.972	columbia_card_task_fmri	1.0	0.9090909090909092	89.0	-45.0	0.0909090909090909	16.0	6.0	1.0	-17.40339525637235	2.972	n/a	stim	poldrack-single-stim	s633	False	1
121.001	1.409	122.41	-3.31444001243384	draw_card	1.409	columbia_card_task_fmri	1.0	0.9	89.0	-45.0	0.1	16.0	7.0	1.0	-16.82759410225775	1.409	n/a	stim	poldrack-single-stim	s633	False	1
122.411	3.498	125.909	-3.825551123544951	draw_card	3.498	columbia_card_task_fmri	1.0	0.8888888888888888	89.0	-45.0	0.1111111111111111	16.0	8.0	1.0	-16.171322908932567	3.498	n/a	stim	poldrack-single-stim	s633	False	1
125.912	0.878	126.79	-4.46444001243384	end_round	0.878	columbia_card_task_fmri	1.0	0.875	71.0	-45.0	0.125	16.0	9.0	1.0	-15.414798414010075	0.878	8.0	stim	poldrack-single-stim	s633	False	1
127.547	1.5	126.796	n/a	-1.0	2.454	columbia_card_task_fmri	n/a	n/a	-1.0	n/a	n/a	n/a	n/a	n/a	n/a	n/a	n/a	ITI	poldrack-single-stim	s633	False	0
129.254	2.845	132.099	-0.65194001243384	draw_card	2.845	columbia_card_task_fmri	15.0	0.8125	89.0	-70.0	0.1875	16.0	1.0	3.0	2.5472324944581928	2.845	n/a	stim	poldrack-single-stim	s633	False	1
132.101	2.192	134.293	-1.71444001243384	draw_card	2.192	columbia_card_task_fmri	15.0	0.8	89.0	-70.0	0.2	16.0	2.0	3.0	3.370650865614735	2.192	2.0	stim	poldrack-single-stim	s633	False	0
135.05	1.5	134.299	n/a	-1.0	2.318	columbia_card_task_fmri	n/a	n/a	-1.0	n/a	n/a	n/a	n/a	n/a	n/a	n/a	n/a	ITI	poldrack-single-stim	s633	False	0
136.621	2.977	139.598	6.28555998756616	end_round	2.977	columbia_card_task_fmri	30.0	0.7	71.0	-50.0	0.3	10.0	1.0	3.0	6.0311694000058935	2.977	0.0	stim	poldrack-single-stim	s633	False	1
140.355	1.5	139.604	n/a	-1.0	2.318	columbia_card_task_fmri	n/a	n/a	-1.0	n/a	n/a	n/a	n/a	n/a	n/a	n/a	n/a	ITI	poldrack-single-stim	s633	False	0
141.927	1.784	143.711	5.68555998756616	draw_card	1.784	columbia_card_task_fmri	17.0	0.8666666666666667	89.0	-70.0	0.1333333333333333	15.0	1.0	2.0	-1.054856513084168	1.784	n/a	stim	poldrack-single-stim	s633	False	1
143.714	1.258	144.972	4.856988558994733	draw_card	1.258	columbia_card_task_fmri	17.0	0.8571428571428572	89.0	-70.0	0.1428571428571428	15.0	2.0	2.0	-0.1855508256989892	1.258	n/a	stim	poldrack-single-stim	s633	False	1
144.974	1.164	146.138	3.900944602950775	draw_card	1.164	columbia_card_task_fmri	17.0	0.8461538461538461	89.0	-70.0	0.1538461538461538	15.0	3.0	2.0	0.7604560508075195	1.164	n/a	stim	poldrack-single-stim	s633	False	1
146.14	1.469	147.609	2.785559987566162	draw_card	1.469	columbia_card_task_fmri	17.0	0.8333333333333334	89.0	-70.0	0.1666666666666666	15.0	4.0	2.0	1.793694862961182	1.469	n/a	stim	poldrack-single-stim	s633	False	1
147.612	2.565	150.177	1.46737816938434	end_round	2.565	columbia_card_task_fmri	17.0	0.8181818181818181	71.0	-70.0	0.1818181818181818	15.0	5.0	2.0	2.926097641542391	2.565	4.0	stim	poldrack-single-stim	s633	False	1
150.933	1.5	150.182	n/a	-1.0	2.59	columbia_card_task_fmri	n/a	n/a	-1.0	n/a	n/a	n/a	n/a	n/a	n/a	n/a	n/a	ITI	poldrack-single-stim	s633	False	0
152.776	5.822	158.598	0.91055998756616	draw_card	5.822	columbia_card_task_fmri	7.0	0.9375	89.0	-95.0	0.0625	16.0	1.0	1.0	-5.938628171203298	5.822	n/a	stim	poldrack-single-stim	s633	False	1
158.601	1.644	160.245	0.4855599875661601	draw_card	1.644	columbia_card_task_fmri	7.0	0.9333333333333332	89.0	-95.0	0.0666666666666666	16.0	2.0	1.0	-5.185675640637832	1.644	n/a	stim	poldrack-single-stim	s633	False	1
160.247	1.972	162.219	-0.0001542981481256	draw_card	1.972	columbia_card_task_fmri	7.0	0.9285714285714286	89.0	-95.0	0.0714285714285714	16.0	3.0	1.0	-4.359979803188853	1.972	n/a	stim	poldrack-single-stim	s633	False	1
162.221	1.361	163.582	-0.5605938585876867	draw_card	1.361	columbia_card_task_fmri	7.0	0.9230769230769232	89.0	-95.0	0.0769230769230769	16.0	4.0	1.0	-3.449174037626761	1.361	n/a	stim	poldrack-single-stim	s633	False	1
163.585	1.722	165.307	-1.21444001243384	draw_card	1.722	columbia_card_task_fmri	7.0	0.9166666666666666	89.0	-95.0	0.0833333333333333	16.0	5.0	1.0	-2.437791346009522	1.722	n/a	stim	poldrack-single-stim	s633	False	1
165.309	1.873	167.182	-1.9871672851611133	end_round	1.873	columbia_card_task_fmri	7.0	0.9090909090909092	71.0	-95.0	0.0909090909090909	16.0	6.0	1.0	-1.3062195708199695	1.873	5.0	stim	poldrack-single-stim	s633	False	1
167.939	1.5	167.188	n/a	-1.0	2.25	columbia_card_task_fmri	n/a	n/a	-1.0	n/a	n/a	n/a	n/a	n/a	n/a	n/a	n/a	ITI	poldrack-single-stim	s633	False	0
169.443	5.049	174.492	2.47305998756616	end_round	5.049	columbia_card_task_fmri	9.0	0.9375	71.0	-100.0	0.0625	16.0	1.0	1.0	-4.2443039972101815	5.049	0.0	stim	poldrack-single-stim	s633	False	1
175.249	1.5	174.498	n/a	-1.0	2.25	columbia_card_task_fmri	n/a	n/a	-1.0	n/a	n/a	n/a	n/a	n/a	n/a	n/a	n/a	ITI	poldrack-single-stim	s633	False	0
176.752	3.355	180.107	3.41055998756616	draw_card	3.355	columbia_card_task_fmri	15.0	0.875	89.0	-80.0	0.125	16.0	1.0	2.0	0.7890462181525777	3.355	n/a	stim	poldrack-single-stim	s633	False	1
180.109	1.091	181.2	2.618893320899494	draw_card	1.091	columbia_card_task_fmri	15.0	0.8666666666666667	89.0	-80.0	0.1333333333333333	16.0	2.0	2.0	1.6645044725066498	1.091	n/a	stim	poldrack-single-stim	s633	False	1
181.202	0.468	181.67	1.714131416137591	draw_card	0.468	columbia_card_task_fmri	15.0	0.8571428571428572	89.0	-80.0	0.1428571428571428	16.0	3.0	2.0	2.613753249465944	0.468	n/a	stim	poldrack-single-stim	s633	False	1
181.672	1.104	182.776	0.6701753721815432	draw_card	1.104	columbia_card_task_fmri	15.0	0.8461538461538461	89.0	-80.0	0.1538461538461538	16.0	4.0	2.0	3.646756373898839	1.104	4.0	stim	poldrack-single-stim	s633	False	0
183.534	1.5	182.783	n/a	-1.0	2.522	columbia_card_task_fmri	n/a	n/a	-1.0	n/a	n/a	n/a	n/a	n/a	n/a	n/a	n/a	ITI	poldrack-single-stim	s633	False	0
185.309	1.554	186.863	5.53555998756616	draw_card	1.554	columbia_card_task_fmri	16.0	0.875	89.0	-70.0	0.125	16.0	1.0	2.0	-2.187288207876197	1.554	n/a	stim	poldrack-single-stim	s633	False	1
186.865	0.752	187.617	4.818893320899493	draw_card	0.752	columbia_card_task_fmri	16.0	0.8666666666666667	89.0	-70.0	0.1333333333333333	16.0	2.0	2.0	-1.3947751177905552	0.752	n/a	stim	poldrack-single-stim	s633	False	1
187.62	1.557	189.177	3.9998457018518754	draw_card	1.557	columbia_card_task_fmri	16.0	0.8571428571428572	89.0	-70.0	0.1428571428571428	16.0	3.0	2.0	-0.5354623599529411	1.557	n/a	stim	poldrack-single-stim	s633	False	1
189.18	0.96	190.14	3.0547907567969284	draw_card	0.96	columbia_card_task_fmri	16.0	0.8461538461538461	89.0	-70.0	0.1538461538461538	16.0	4.0	2.0	0.3996699411144853	0.96	n/a	stim	poldrack-single-stim	s633	False	1
190.143	0.809	190.952	1.952226654232828	draw_card	0.809	columbia_card_task_fmri	16.0	0.8333333333333334	89.0	-70.0	0.1666666666666666	16.0	5.0	2.0	1.4210314880687704	0.809	n/a	stim	poldrack-single-stim	s633	False	1
190.955	0.554	191.509	0.6491963512025215	end_round	0.554	columbia_card_task_fmri	16.0	0.8181818181818181	71.0	-70.0	0.1818181818181818	16.0	6.0	2.0	2.5404171615863973	0.554	5.0	stim	poldrack-single-stim	s633	False	1
192.265	1.5	191.514	n/a	-1.0	2.454	columbia_card_task_fmri	n/a	n/a	-1.0	n/a	n/a	n/a	n/a	n/a	n/a	n/a	n/a	ITI	poldrack-single-stim	s633	False	0
193.973	5.6	199.573	6.84805998756616	draw_card	5.6	columbia_card_task_fmri	30.0	0.6875	89.0	-45.0	0.3125	16.0	1.0	5.0	4.13405494028077	5.6	1.0	stim	poldrack-single-stim	s633	False	0
200.331	1.5	199.58	n/a	-1.0	2.25	columbia_card_task_fmri	n/a	n/a	-1.0	n/a	n/a	n/a	n/a	n/a	n/a	n/a	n/a	ITI	poldrack-single-stim	s633	False	0
201.833	1.737	203.57	-1.381106679100506	draw_card	1.737	columbia_card_task_fmri	13.0	0.8333333333333334	89.0	-75.0	0.1666666666666666	6.0	1.0	1.0	2.1663585701380583	1.737	n/a	stim	poldrack-single-stim	s633	False	1
203.573	3.282	206.855	-4.31444001243384	draw_card	3.282	columbia_card_task_fmri	13.0	0.8	89.0	-75.0	0.2	6.0	2.0	1.0	4.57060998643459	3.282	n/a	stim	poldrack-single-stim	s633	False	1
206.857	0.648	207.505	-8.71444001243384	end_round	0.648	columbia_card_task_fmri	13.0	0.75	71.0	-75.0	0.25	6.0	3.0	1.0	7.475639448489588	0.648	2.0	stim	poldrack-single-stim	s633	False	1
208.262	1.5	207.511	n/a	-1.0	2.454	columbia_card_task_fmri	n/a	n/a	-1.0	n/a	n/a	n/a	n/a	n/a	n/a	n/a	n/a	ITI	poldrack-single-stim	s633	False	0
209.97	2.063	212.033	0.2855599875661617	draw_card	2.063	columbia_card_task_fmri	14.0	0.8333333333333334	89.0	-70.0	0.1666666666666666	6.0	1.0	1.0	0.6757057826027122	2.063	n/a	stim	poldrack-single-stim	s633	False	1
212.036	0.545	212.581	-2.514440012433839	end_round	0.545	columbia_card_task_fmri	14.0	0.8	71.0	-70.0	0.2	6.0	2.0	1.0	2.970665140849519	0.545	1.0	stim	poldrack-single-stim	s633	False	1
213.337	1.5	212.586	n/a	-1.0	2.454	columbia_card_task_fmri	n/a	n/a	-1.0	n/a	n/a	n/a	n/a	n/a	n/a	n/a	n/a	ITI	poldrack-single-stim	s633	False	0
215.045	1.738	216.783	0.2855599875661617	draw_card	1.738	columbia_card_task_fmri	16.0	0.8333333333333334	89.0	-80.0	0.1666666666666666	6.0	1.0	1.0	5.147678943812721	1.738	n/a	stim	poldrack-single-stim	s633	False	1
216.786	1.151	217.937	-2.914440012433839	draw_card	1.151	columbia_card_task_fmri	16.0	0.8	89.0	-80.0	0.2	6.0	2.0	1.0	7.770513465592032	1.151	n/a	stim	poldrack-single-stim	s633	False	1
217.94	0.629	218.569	-7.71444001243384	end_round	0.629	columbia_card_task_fmri	16.0	0.75	71.0	-80.0	0.25	6.0	3.0	1.0	10.939651900899094	0.629	2.0	stim	poldrack-single-stim	s633	False	1
219.328	1.5	218.577	n/a	-1.0	2.522	columbia_card_task_fmri	n/a	n/a	-1.0	n/a	n/a	n/a	n/a	n/a	n/a	n/a	n/a	ITI	poldrack-single-stim	s633	False	0
221.103	1.642	222.745	2.785559987566162	draw_card	1.642	columbia_card_task_fmri	17.0	0.8333333333333334	89.0	-70.0	0.1666666666666666	6.0	1.0	1.0	1.793694862961182	1.642	n/a	stim	poldrack-single-stim	s633	False	1
222.748	1.059	223.807	-0.1144400124338386	draw_card	1.059	columbia_card_task_fmri	17.0	0.8	89.0	-70.0	0.2	6.0	2.0	1.0	4.17062329959343	1.059	n/a	stim	poldrack-single-stim	s633	False	1
223.81	0.608	224.418	-4.46444001243384	end_round	0.608	columbia_card_task_fmri	17.0	0.75	71.0	-70.0	0.25	6.0	3.0	1.0	7.042639044856763	0.608	2.0	stim	poldrack-single-stim	s633	False	1
225.176	1.5	224.425	n/a	-1.0	2.454	columbia_card_task_fmri	n/a	n/a	-1.0	n/a	n/a	n/a	n/a	n/a	n/a	n/a	n/a	ITI	poldrack-single-stim	s633	False	0
226.884	1.933	228.817	2.78555998756616	draw_card	1.933	columbia_card_task_fmri	25.0	0.75	89.0	-65.0	0.25	8.0	1.0	2.0	8.341641075605537	1.933	n/a	stim	poldrack-single-stim	s633	False	1
228.818	0.393	229.211	-0.4287257267195518	draw_card	0.393	columbia_card_task_fmri	25.0	0.7142857142857143	89.0	-65.0	0.2857142857142857	8.0	2.0	2.0	10.028310134877948	0.393	2.0	stim	poldrack-single-stim	s633	False	0
229.967	1.5	229.216	n/a	-1.0	2.658	columbia_card_task_fmri	n/a	n/a	-1.0	n/a	n/a	n/a	n/a	n/a	n/a	n/a	n/a	ITI	poldrack-single-stim	s633	False	0
231.878	1.597	233.475	2.78555998756616	draw_card	1.597	columbia_card_task_fmri	30.0	0.75	89.0	-80.0	0.25	8.0	1.0	2.0	17.00170489861842	1.597	n/a	stim	poldrack-single-stim	s633	False	1
233.478	0.748	234.226	-1.1430114410052634	draw_card	0.748	columbia_card_task_fmri	30.0	0.7142857142857143	89.0	-80.0	0.2857142857142857	8.0	2.0	2.0	19.06320683976637	0.748	n/a	stim	poldrack-single-stim	s633	False	1
234.229	0.523	234.752	-6.381106679100501	end_round	0.523	columbia_card_task_fmri	30.0	0.6666666666666667	71.0	-80.0	0.3333333333333333	8.0	3.0	2.0	21.22473526580641	0.523	2.0	stim	poldrack-single-stim	s633	False	1
235.509	1.5	234.758	n/a	-1.0	2.386	columbia_card_task_fmri	n/a	n/a	-1.0	n/a	n/a	n/a	n/a	n/a	n/a	n/a	n/a	ITI	poldrack-single-stim	s633	False	0
237.148	2.979	240.127	2.485559987566161	draw_card	2.979	columbia_card_task_fmri	13.0	0.9	89.0	-95.0	0.1	10.0	1.0	1.0	1.77071008128366	2.979	n/a	stim	poldrack-single-stim	s633	False	1
240.13	0.706	240.836	1.28555998756616	end_round	0.706	columbia_card_task_fmri	13.0	0.8888888888888888	71.0	-95.0	0.1111111111111111	10.0	2.0	1.0	3.3117784425712173	0.706	1.0	stim	poldrack-single-stim	s633	False	1
241.591	1.5	240.84	n/a	-1.0	2.522	columbia_card_task_fmri	n/a	n/a	-1.0	n/a	n/a	n/a	n/a	n/a	n/a	n/a	n/a	ITI	poldrack-single-stim	s633	False	0
243.367	1.648	245.015	3.88555998756616	draw_card	1.648	columbia_card_task_fmri	14.0	0.9	89.0	-90.0	0.1	10.0	1.0	1.0	0.570758478464942	1.648	n/a	stim	poldrack-single-stim	s633	False	1
245.019	1.472	246.491	2.730004432010603	draw_card	1.472	columbia_card_task_fmri	14.0	0.8888888888888888	89.0	-90.0	0.1111111111111111	10.0	2.0	1.0	2.0547459203763268	1.472	n/a	stim	poldrack-single-stim	s633	False	1
246.493	1.916	248.409	1.28555998756616	draw_card	1.916	columbia_card_task_fmri	14.0	0.875	89.0	-90.0	0.125	10.0	3.0	1.0	3.765404146502256	1.916	n/a	stim	poldrack-single-stim	s633	False	1
248.411	2.119	250.53	-0.5715828695766959	end_round	2.119	columbia_card_task_fmri	14.0	0.8571428571428572	71.0	-90.0	0.1428571428571428	10.0	4.0	1.0	5.762991071414632	2.119	3.0	stim	poldrack-single-stim	s633	False	1
251.288	1.5	250.537	n/a	-1.0	2.59	columbia_card_task_fmri	n/a	n/a	-1.0	n/a	n/a	n/a	n/a	n/a	n/a	n/a	n/a	ITI	poldrack-single-stim	s633	False	0
253.132	2.548	255.68	-0.9144400124338392	draw_card	2.548	columbia_card_task_fmri	16.0	0.8	89.0	-70.0	0.2	10.0	1.0	2.0	3.7706369223447993	2.548	n/a	stim	poldrack-single-stim	s633	False	1
255.684	0.918	256.602	-2.82555112354495	draw_card	0.918	columbia_card_task_fmri	16.0	0.7777777777777778	89.0	-70.0	0.2222222222222222	10.0	2.0	2.0	5.124207081125043	0.918	n/a	stim	poldrack-single-stim	s633	False	1
256.605	0.578	257.183	-5.21444001243384	end_round	0.578	columbia_card_task_fmri	16.0	0.75	71.0	-70.0	0.25	10.0	3.0	2.0	6.60963892721751	0.578	2.0	stim	poldrack-single-stim	s633	False	1
257.94	1.5	257.189	n/a	-1.0	2.386	columbia_card_task_fmri	n/a	n/a	-1.0	n/a	n/a	n/a	n/a	n/a	n/a	n/a	n/a	ITI	poldrack-single-stim	s633	False	0
259.58	3.197	262.777	-1.631106679100506	draw_card	3.197	columbia_card_task_fmri	7.0	0.9166666666666666	89.0	-100.0	0.0833333333333333	12.0	1.0	1.0	-1.0559319277877783	3.197	n/a	stim	poldrack-single-stim	s633	False	1
262.78	1.03	263.81	-2.4417127397065683	draw_card	1.03	columbia_card_task_fmri	7.0	0.9090909090909092	89.0	-100.0	0.0909090909090909	12.0	2.0	1.0	0.1311143954529363	1.03	n/a	stim	poldrack-single-stim	s633	False	1
263.813	1.989	265.802	-3.41444001243384	draw_card	1.989	columbia_card_task_fmri	7.0	0.9	89.0	-100.0	0.1	12.0	3.0	1.0	1.470721841366668	1.989	n/a	stim	poldrack-single-stim	s633	False	1
265.805	1.172	266.977	-4.60332890132273	draw_card	1.172	columbia_card_task_fmri	7.0	0.8888888888888888	89.0	-100.0	0.1111111111111111	12.0	4.0	1.0	2.99751998820895	1.172	n/a	stim	poldrack-single-stim	s633	False	1
266.98	0.734	267.714	-6.08944001243384	end_round	0.734	columbia_card_task_fmri	7.0	0.875	71.0	-100.0	0.125	12.0	5.0	1.0	4.757527653740191	0.734	4.0	stim	poldrack-single-stim	s633	False	1
268.472	1.5	267.721	n/a	-1.0	2.59	columbia_card_task_fmri	n/a	n/a	-1.0	n/a	n/a	n/a	n/a	n/a	n/a	n/a	n/a	ITI	poldrack-single-stim	s633	False	0
270.316	2.881	273.197	-1.3811066791005042	draw_card	2.881	columbia_card_task_fmri	14.0	0.8333333333333334	89.0	-80.0	0.1666666666666666	12.0	1.0	2.0	4.402347197344888	2.881	n/a	stim	poldrack-single-stim	s633	False	1
273.199	0.354	273.553	-2.8053491033429334	draw_card	0.354	columbia_card_task_fmri	14.0	0.8181818181818181	89.0	-80.0	0.1818181818181818	12.0	2.0	2.0	5.625869417479436	0.354	2.0	stim	poldrack-single-stim	s633	False	0
274.309	1.5	273.558	n/a	-1.0	2.318	columbia_card_task_fmri	n/a	n/a	-1.0	n/a	n/a	n/a	n/a	n/a	n/a	n/a	n/a	ITI	poldrack-single-stim	s633	False	0
275.881	3.308	279.189	0.2855599875661599	draw_card	3.308	columbia_card_task_fmri	15.0	0.8333333333333334	89.0	-75.0	0.1666666666666666	12.0	1.0	2.0	2.9116869370439176	3.308	n/a	stim	poldrack-single-stim	s633	False	1
279.192	1.461	280.653	-1.078076376070205	draw_card	1.461	columbia_card_task_fmri	15.0	0.8181818181818181	89.0	-75.0	0.1818181818181818	12.0	2.0	2.0	4.083140965040691	1.461	n/a	stim	poldrack-single-stim	s633	False	1
280.656	1.202	281.858	-2.71444001243384	draw_card	1.202	columbia_card_task_fmri	15.0	0.8	89.0	-75.0	0.2	12.0	3.0	2.0	5.37058424761814	1.202	n/a	stim	poldrack-single-stim	s633	False	1
281.861	0.464	282.325	-4.714440012433839	end_round	0.464	columbia_card_task_fmri	15.0	0.7777777777777778	71.0	-75.0	0.2222222222222222	12.0	4.0	2.0	6.787115239018881	0.464	3.0	stim	poldrack-single-stim	s633	False	1
283.081	1.5	282.33	n/a	-1.0	2.25	columbia_card_task_fmri	n/a	n/a	-1.0	n/a	n/a	n/a	n/a	n/a	n/a	n/a	n/a	ITI	poldrack-single-stim	s633	False	0
284.585	2.378	286.963	-0.71444001243384	draw_card	2.378	columbia_card_task_fmri	15.0	0.8	89.0	-65.0	0.2	15.0	1.0	3.0	1.370725810391768	2.378	n/a	stim	poldrack-single-stim	s633	False	1
286.967	0.875	287.842	-1.8572971552909825	draw_card	0.875	columbia_card_task_fmri	15.0	0.7857142857142857	89.0	-65.0	0.2142857142857142	15.0	2.0	3.0	2.1967660144743064	0.875	2.0	stim	poldrack-single-stim	s633	False	0
288.6	1.5	287.849	n/a	-1.0	2.454	columbia_card_task_fmri	n/a	n/a	-1.0	n/a	n/a	n/a	n/a	n/a	n/a	n/a	n/a	ITI	poldrack-single-stim	s633	False	0
290.308	1.696	292.004	-1.46444001243384	draw_card	1.696	columbia_card_task_fmri	14.0	0.8125	89.0	-70.0	0.1875	16.0	1.0	3.0	2.1569347490676734	1.696	n/a	stim	poldrack-single-stim	s633	False	1
292.008	1.734	293.742	-2.514440012433839	draw_card	1.734	columbia_card_task_fmri	14.0	0.8	89.0	-70.0	0.2	16.0	2.0	3.0	2.970665140849519	1.734	n/a	stim	poldrack-single-stim	s633	False	1
293.744	2.049	295.793	-3.71444001243384	draw_card	2.049	columbia_card_task_fmri	14.0	0.7857142857142857	89.0	-70.0	0.2142857142857142	16.0	3.0	3.0	3.8380104848180494	2.049	n/a	stim	poldrack-single-stim	s633	False	1
295.796	0.352	296.148	-5.099055397049225	draw_card	0.352	columbia_card_task_fmri	14.0	0.7692307692307692	89.0	-70.0	0.2307692307692307	16.0	4.0	3.0	4.761907441385546	0.352	n/a	stim	poldrack-single-stim	s633	False	1
296.152	2.52	298.672	-6.71444001243384	draw_card	2.52	columbia_card_task_fmri	14.0	0.75	89.0	-70.0	0.25	16.0	5.0	3.0	5.743639590773469	2.52	n/a	stim	poldrack-single-stim	s633	False	1
298.674	0.598	299.272	-8.623530921524749	end_round	0.598	columbia_card_task_fmri	14.0	0.7272727272727273	71.0	-70.0	0.2727272727272727	16.0	6.0	3.0	6.780930350299734	0.598	5.0	stim	poldrack-single-stim	s633	False	1
300.029	1.5	299.278	n/a	-1.0	3.27	columbia_card_task_fmri	n/a	n/a	-1.0	n/a	n/a	n/a	n/a	n/a	n/a	n/a	n/a	ITI	poldrack-single-stim	s633	False	0
302.553	3.192	305.745	-1.52694001243384	end_round	3.192	columbia_card_task_fmri	11.0	0.6875	71.0	-30.0	0.3125	16.0	1.0	5.0	-11.624394339649385	3.192	0.0	stim	poldrack-single-stim	s633	False	1
306.502	1.5	305.751	n/a	-1.0	2.25	columbia_card_task_fmri	n/a	n/a	-1.0	n/a	n/a	n/a	n/a	n/a	n/a	n/a	n/a	ITI	poldrack-single-stim	s633	False	0
308.006	2.268	310.274	3.28555998756616	draw_card	2.268	columbia_card_task_fmri	15.0	0.8666666666666667	89.0	-75.0	0.1333333333333333	15.0	1.0	2.0	-0.0350985618373336	2.268	n/a	stim	poldrack-single-stim	s633	False	1
310.278	0.867	311.145	2.428417130423304	draw_card	0.867	columbia_card_task_fmri	15.0	0.8571428571428572	89.0	-75.0	0.1428571428571428	15.0	2.0	2.0	0.8641858531791335	0.867	n/a	stim	poldrack-single-stim	s633	False	1
311.147	1.265	312.412	1.4394061414123134	draw_card	1.265	columbia_card_task_fmri	15.0	0.8461538461538461	89.0	-75.0	0.1538461538461538	15.0	3.0	2.0	1.842816393446839	1.265	n/a	stim	poldrack-single-stim	s633	False	1
312.416	1.189	313.605	0.2855599875661599	end_round	1.189	columbia_card_task_fmri	15.0	0.8333333333333334	71.0	-75.0	0.1666666666666666	15.0	4.0	2.0	2.9116869370439176	1.189	3.0	stim	poldrack-single-stim	s633	False	1
314.363	1.5	313.612	n/a	-1.0	2.25	columbia_card_task_fmri	n/a	n/a	-1.0	n/a	n/a	n/a	n/a	n/a	n/a	n/a	n/a	ITI	poldrack-single-stim	s633	False	0
315.866	2.124	317.99	5.018893320899494	draw_card	2.124	columbia_card_task_fmri	17.0	0.8666666666666667	89.0	-75.0	0.1333333333333333	15.0	1.0	2.0	0.6447417371287543	2.124	n/a	stim	poldrack-single-stim	s633	False	1
317.993	1.181	319.174	4.142702844709019	draw_card	1.181	columbia_card_task_fmri	17.0	0.8571428571428572	89.0	-75.0	0.1428571428571428	15.0	2.0	2.0	1.5640119230382297	1.181	n/a	stim	poldrack-single-stim	s633	False	1
319.177	1.579	320.756	3.131713833720007	draw_card	1.579	columbia_card_task_fmri	17.0	0.8461538461538461	89.0	-75.0	0.1538461538461538	15.0	3.0	2.0	2.564391523749002	1.579	n/a	stim	poldrack-single-stim	s633	False	1
320.76	1.412	322.172	1.952226654232828	end_round	1.412	columbia_card_task_fmri	17.0	0.8333333333333334	71.0	-75.0	0.1666666666666666	15.0	4.0	2.0	3.6570165049986727	1.412	3.0	stim	poldrack-single-stim	s633	False	1
322.929	1.5	322.178	n/a	-1.0	2.318	columbia_card_task_fmri	n/a	n/a	-1.0	n/a	n/a	n/a	n/a	n/a	n/a	n/a	n/a	ITI	poldrack-single-stim	s633	False	0
324.502	1.942	326.444	0.59805998756616	draw_card	1.942	columbia_card_task_fmri	2.0	0.9375	89.0	-25.0	0.0625	16.0	1.0	1.0	-24.08865344501415	1.942	n/a	stim	poldrack-single-stim	s633	False	1
326.447	1.166	327.613	0.4855599875661599	draw_card	1.166	columbia_card_task_fmri	2.0	0.9333333333333332	89.0	-25.0	0.0666666666666666	16.0	2.0	1.0	-23.88951391759084	1.166	n/a	stim	poldrack-single-stim	s633	False	1
327.616	1.29	328.906	0.3569885589947316	draw_card	1.29	columbia_card_task_fmri	2.0	0.9285714285714286	89.0	-25.0	0.0714285714285714	16.0	3.0	1.0	-23.67112408801302	1.29	n/a	stim	poldrack-single-stim	s633	False	1
328.909	1.185	330.094	0.2086369106430831	draw_card	1.185	columbia_card_task_fmri	2.0	0.9230769230769232	89.0	-25.0	0.0769230769230769	16.0	4.0	1.0	-23.430210935896763	1.185	n/a	stim	poldrack-single-stim	s633	False	1
330.098	1.029	331.127	0.0355599875661601	draw_card	1.029	columbia_card_task_fmri	2.0	0.9166666666666666	89.0	-25.0	0.0833333333333333	16.0	5.0	1.0	-23.162680830035452	1.029	n/a	stim	poldrack-single-stim	s633	False	1
331.131	0.881	332.012	-0.1689854669792948	draw_card	0.881	columbia_card_task_fmri	2.0	0.9090909090909092	89.0	-25.0	0.0909090909090909	16.0	6.0	1.0	-22.86334298309521	0.881	n/a	stim	poldrack-single-stim	s633	False	1
332.015	1.38	333.395	-0.41444001243384	draw_card	1.38	columbia_card_task_fmri	2.0	0.9	89.0	-25.0	0.1	16.0	7.0	1.0	-22.52551624870144	1.38	n/a	stim	poldrack-single-stim	s633	False	1
333.4	1.156	334.556	-0.71444001243384	draw_card	1.156	columbia_card_task_fmri	2.0	0.8888888888888888	89.0	-25.0	0.1111111111111111	16.0	8.0	1.0	-22.14046322652953	1.156	n/a	stim	poldrack-single-stim	s633	False	1
334.559	0.851	335.41	-1.08944001243384	end_round	0.851	columbia_card_task_fmri	2.0	0.875	71.0	-25.0	0.125	16.0	9.0	1.0	-21.6965727259742	0.851	8.0	stim	poldrack-single-stim	s633	False	1
336.167	1.5	335.416	n/a	-1.0	2.726	columbia_card_task_fmri	n/a	n/a	-1.0	n/a	n/a	n/a	n/a	n/a	n/a	n/a	n/a	ITI	poldrack-single-stim	s633	False	0
338.148	2.867	341.015	2.78555998756616	draw_card	2.867	columbia_card_task_fmri	9.0	0.9375	89.0	-95.0	0.0625	16.0	1.0	1.0	-5.454537006516123	2.867	n/a	stim	poldrack-single-stim	s633	False	1
341.018	2.319	343.337	2.3522266542328274	draw_card	2.319	columbia_card_task_fmri	9.0	0.9333333333333332	89.0	-95.0	0.0666666666666666	16.0	2.0	1.0	-4.686818803076321	2.319	n/a	stim	poldrack-single-stim	s633	False	1
343.34	1.353	344.693	1.856988558994732	draw_card	1.353	columbia_card_task_fmri	9.0	0.9285714285714286	89.0	-95.0	0.0714285714285714	16.0	3.0	1.0	-3.8449308951161	1.353	3.0	stim	poldrack-single-stim	s633	False	0
345.451	1.5	344.7	n/a	-1.0	2.386	columbia_card_task_fmri	n/a	n/a	-1.0	n/a	n/a	n/a	n/a	n/a	n/a	n/a	n/a	ITI	poldrack-single-stim	s633	False	0
347.091	1.38	348.471	4.34805998756616	end_round	1.38	columbia_card_task_fmri	11.0	0.9375	71.0	-100.0	0.0625	16.0	1.0	1.0	-3.760208919760302	1.38	0.0	stim	poldrack-single-stim	s633	False	1
349.228	1.5	348.477	n/a	-1.0	2.318	columbia_card_task_fmri	n/a	n/a	-1.0	n/a	n/a	n/a	n/a	n/a	n/a	n/a	n/a	ITI	poldrack-single-stim	s633	False	0
350.8	1.77	352.57	4.91055998756616	draw_card	1.77	columbia_card_task_fmri	16.0	0.875	89.0	-75.0	0.125	16.0	1.0	2.0	-0.53377239829247	1.77	1.0	stim	poldrack-single-stim	s633	False	0
353.328	1.5	352.577	n/a	-1.0	2.25	columbia_card_task_fmri	n/a	n/a	-1.0	n/a	n/a	n/a	n/a	n/a	n/a	n/a	n/a	ITI	poldrack-single-stim	s633	False	0
354.833	2.322	357.155	5.16055998756616	draw_card	2.322	columbia_card_task_fmri	17.0	0.875	89.0	-80.0	0.125	16.0	1.0	2.0	1.4504572903627135	2.322	n/a	stim	poldrack-single-stim	s633	False	1
357.159	1.106	358.265	4.352226654232828	draw_card	1.106	columbia_card_task_fmri	17.0	0.8666666666666667	89.0	-80.0	0.1333333333333333	16.0	2.0	2.0	2.344347710695587	1.106	n/a	stim	poldrack-single-stim	s633	False	1
358.269	0.594	358.863	3.428417130423306	end_round	0.594	columbia_card_task_fmri	17.0	0.8571428571428572	71.0	-80.0	0.1428571428571428	16.0	3.0	2.0	3.313582174635343	0.594	2.0	stim	poldrack-single-stim	s633	False	1
359.621	1.5	358.87	n/a	-1.0	2.25	columbia_card_task_fmri	n/a	n/a	-1.0	n/a	n/a	n/a	n/a	n/a	n/a	n/a	n/a	ITI	poldrack-single-stim	s633	False	0
372.135	1.985	374.12	-0.5477733457671722	draw_card	1.985	columbia_card_task_fmri	13.0	0.8333333333333334	89.0	-70.0	0.1666666666666666	6.0	1.0	1.0	0.3030434771912844	1.985	n/a	stim	poldrack-single-stim	s633	False	1
374.124	0.627	374.751	-3.31444001243384	end_round	0.627	columbia_card_task_fmri	13.0	0.8	71.0	-70.0	0.2	6.0	2.0	1.0	2.570679760047	0.627	1.0	stim	poldrack-single-stim	s633	False	1
375.507	1.5	374.756	n/a	-1.0	2.454	columbia_card_task_fmri	n/a	n/a	-1.0	n/a	n/a	n/a	n/a	n/a	n/a	n/a	n/a	ITI	poldrack-single-stim	s633	False	0
377.215	7.71	384.925	-0.5477733457671722	draw_card	7.71	columbia_card_task_fmri	15.0	0.8333333333333334	89.0	-80.0	0.1666666666666666	6.0	1.0	1.0	4.775012942974335	7.71	n/a	stim	poldrack-single-stim	s633	False	1
384.928	0.879	385.807	-3.71444001243384	end_round	0.879	columbia_card_task_fmri	15.0	0.8	71.0	-80.0	0.2	6.0	2.0	1.0	7.37052464172811	0.879	1.0	stim	poldrack-single-stim	s633	False	1
386.565	1.5	385.814	n/a	-1.0	2.454	columbia_card_task_fmri	n/a	n/a	-1.0	n/a	n/a	n/a	n/a	n/a	n/a	n/a	n/a	ITI	poldrack-single-stim	s633	False	0
388.273	2.401	390.674	1.118893320899494	draw_card	2.401	columbia_card_task_fmri	16.0	0.8333333333333334	89.0	-75.0	0.1666666666666666	6.0	1.0	1.0	3.28435157583921	2.401	n/a	stim	poldrack-single-stim	s633	False	1
390.678	2.025	392.703	-1.9144400124338392	end_round	2.025	columbia_card_task_fmri	16.0	0.8	71.0	-75.0	0.2	6.0	2.0	1.0	5.770571802456246	2.025	1.0	stim	poldrack-single-stim	s633	False	1
393.463	1.5	392.712	n/a	-1.0	2.522	columbia_card_task_fmri	n/a	n/a	-1.0	n/a	n/a	n/a	n/a	n/a	n/a	n/a	n/a	ITI	poldrack-single-stim	s633	False	0
395.24	2.356	397.596	2.28555998756616	draw_card	2.356	columbia_card_task_fmri	21.0	0.75	89.0	-55.0	0.25	8.0	1.0	2.0	2.2796559639300256	2.356	n/a	stim	poldrack-single-stim	s633	False	1
397.6	3.456	401.056	-0.4287257267195535	end_round	3.456	columbia_card_task_fmri	21.0	0.7142857142857143	71.0	-55.0	0.2857142857142857	8.0	2.0	2.0	3.703939535204072	3.456	1.0	stim	poldrack-single-stim	s633	False	1
401.814	1.5	401.063	n/a	-1.0	2.386	columbia_card_task_fmri	n/a	n/a	-1.0	n/a	n/a	n/a	n/a	n/a	n/a	n/a	n/a	ITI	poldrack-single-stim	s633	False	0
403.456	2.099	405.555	3.53555998756616	draw_card	2.099	columbia_card_task_fmri	26.0	0.75	89.0	-65.0	0.25	8.0	1.0	2.0	8.774642281070946	2.099	n/a	stim	poldrack-single-stim	s633	False	1
405.559	1.359	406.918	0.2855599875661635	end_round	1.359	columbia_card_task_fmri	26.0	0.7142857142857143	71.0	-65.0	0.2857142857142857	8.0	2.0	2.0	10.480053066803409	1.359	1.0	stim	poldrack-single-stim	s633	False	1
407.674	1.5	406.923	n/a	-1.0	2.454	columbia_card_task_fmri	n/a	n/a	-1.0	n/a	n/a	n/a	n/a	n/a	n/a	n/a	n/a	ITI	poldrack-single-stim	s633	False	0
409.382	5.515	414.897	-1.381106679100506	draw_card	5.515	columbia_card_task_fmri	15.0	0.7777777777777778	89.0	-60.0	0.2222222222222222	9.0	1.0	2.0	0.5512375197056087	5.515	1.0	stim	poldrack-single-stim	s633	False	0
415.656	1.5	414.905	n/a	-1.0	2.522	columbia_card_task_fmri	n/a	n/a	-1.0	n/a	n/a	n/a	n/a	n/a	n/a	n/a	n/a	ITI	poldrack-single-stim	s633	False	0
417.433	3.784	421.217	2.985559987566161	draw_card	3.784	columbia_card_task_fmri	13.0	0.9	89.0	-90.0	0.1	10.0	1.0	1.0	0.2707711650677815	3.784	n/a	stim	poldrack-single-stim	s633	False	1
421.221	0.766	421.987	1.8411155431217157	end_round	0.766	columbia_card_task_fmri	13.0	0.8888888888888888	71.0	-90.0	0.1111111111111111	10.0	2.0	1.0	1.7404883504740596	0.766	1.0	stim	poldrack-single-stim	s633	False	1
422.745	1.5	421.994	n/a	-1.0	2.522	columbia_card_task_fmri	n/a	n/a	-1.0	n/a	n/a	n/a	n/a	n/a	n/a	n/a	n/a	ITI	poldrack-single-stim	s633	False	0
424.522	1.891	426.413	4.28555998756616	draw_card	1.891	columbia_card_task_fmri	15.0	0.9	89.0	-95.0	0.1	10.0	1.0	1.0	2.3706872025401324	1.891	n/a	stim	poldrack-single-stim	s633	False	1
426.417	0.985	427.402	3.063337765343937	draw_card	0.985	columbia_card_task_fmri	15.0	0.8888888888888888	89.0	-95.0	0.1111111111111111	10.0	2.0	1.0	3.940295963600221	0.985	n/a	stim	poldrack-single-stim	s633	False	1
427.406	0.642	428.048	1.53555998756616	end_round	0.642	columbia_card_task_fmri	15.0	0.875	71.0	-95.0	0.125	10.0	3.0	1.0	5.749652973678039	0.642	2.0	stim	poldrack-single-stim	s633	False	1
428.804	1.5	428.053	n/a	-1.0	2.59	columbia_card_task_fmri	n/a	n/a	-1.0	n/a	n/a	n/a	n/a	n/a	n/a	n/a	n/a	ITI	poldrack-single-stim	s633	False	0
430.65	1.63	432.28	0.0855599875661606	draw_card	1.63	columbia_card_task_fmri	16.0	0.8	89.0	-65.0	0.2	10.0	1.0	2.0	1.77071008128366	1.63	n/a	stim	poldrack-single-stim	s633	False	1
432.284	1.386	433.67	-1.714440012433838	draw_card	1.386	columbia_card_task_fmri	16.0	0.7777777777777778	89.0	-65.0	0.2222222222222222	10.0	2.0	2.0	3.045578922380429	1.386	n/a	stim	poldrack-single-stim	s633	False	1
433.674	0.801	434.475	-3.96444001243384	end_round	0.801	columbia_card_task_fmri	16.0	0.75	71.0	-65.0	0.25	10.0	3.0	2.0	4.444642999633793	0.801	2.0	stim	poldrack-single-stim	s633	False	1
435.234	1.5	434.483	n/a	-1.0	2.454	columbia_card_task_fmri	n/a	n/a	-1.0	n/a	n/a	n/a	n/a	n/a	n/a	n/a	n/a	ITI	poldrack-single-stim	s633	False	0
436.942	3.737	440.679	-1.21444001243384	draw_card	3.737	columbia_card_task_fmri	7.0	0.9166666666666666	89.0	-95.0	0.0833333333333333	12.0	1.0	1.0	-2.437791346009522	3.737	1.0	stim	poldrack-single-stim	s633	False	0
441.437	1.5	440.686	n/a	-1.0	2.318	columbia_card_task_fmri	n/a	n/a	-1.0	n/a	n/a	n/a	n/a	n/a	n/a	n/a	n/a	ITI	poldrack-single-stim	s633	False	0
443.01	3.706	446.716	-0.5477733457671722	draw_card	3.706	columbia_card_task_fmri	14.0	0.8333333333333334	89.0	-75.0	0.1666666666666666	12.0	1.0	2.0	2.5390225983996544	3.706	n/a	stim	poldrack-single-stim	s633	False	1
446.72	1.736	448.456	-1.8962581942520236	draw_card	1.736	columbia_card_task_fmri	14.0	0.8181818181818181	89.0	-75.0	0.1818181818181818	12.0	2.0	2.0	3.697459553850983	1.736	n/a	stim	poldrack-single-stim	s633	False	1
448.459	1.276	449.735	-3.514440012433839	draw_card	1.276	columbia_card_task_fmri	14.0	0.8	89.0	-75.0	0.2	12.0	3.0	2.0	4.970596972433249	1.276	n/a	stim	poldrack-single-stim	s633	False	1
449.739	0.426	450.165	-5.492217790211615	end_round	0.426	columbia_card_task_fmri	14.0	0.7777777777777778	71.0	-75.0	0.2222222222222222	12.0	4.0	2.0	6.37138777248034	0.426	3.0	stim	poldrack-single-stim	s633	False	1
450.923	1.5	450.172	n/a	-1.0	2.25	columbia_card_task_fmri	n/a	n/a	-1.0	n/a	n/a	n/a	n/a	n/a	n/a	n/a	n/a	ITI	poldrack-single-stim	s633	False	0
452.428	2.064	454.492	1.118893320899494	draw_card	2.064	columbia_card_task_fmri	15.0	0.8333333333333334	89.0	-70.0	0.1666666666666666	12.0	1.0	2.0	1.0483684571875749	2.064	n/a	stim	poldrack-single-stim	s633	False	1
454.497	1.238	455.735	-0.1689854669792968	draw_card	1.238	columbia_card_task_fmri	15.0	0.8181818181818181	89.0	-70.0	0.1818181818181818	12.0	2.0	2.0	2.154737014034396	1.238	2.0	stim	poldrack-single-stim	s633	False	0
456.494	1.5	455.743	n/a	-1.0	2.658	columbia_card_task_fmri	n/a	n/a	-1.0	n/a	n/a	n/a	n/a	n/a	n/a	n/a	n/a	ITI	poldrack-single-stim	s633	False	0
458.406	2.397	460.803	-0.9144400124338392	draw_card	2.397	columbia_card_task_fmri	16.0	0.8	89.0	-70.0	0.2	15.0	1.0	3.0	3.7706369223447993	2.397	1.0	stim	poldrack-single-stim	s633	False	0
461.561	1.5	460.81	n/a	-1.0	2.454	columbia_card_task_fmri	n/a	n/a	-1.0	n/a	n/a	n/a	n/a	n/a	n/a	n/a	n/a	ITI	poldrack-single-stim	s633	False	0
463.271	1.821	465.092	-0.52694001243384	draw_card	1.821	columbia_card_task_fmri	14.0	0.8125	89.0	-65.0	0.1875	16.0	1.0	3.0	0.2054515772831351	1.821	n/a	stim	poldrack-single-stim	s633	False	1
465.095	0.946	466.041	-1.5144400124338389	end_round	0.946	columbia_card_task_fmri	14.0	0.8	71.0	-65.0	0.2	16.0	2.0	3.0	0.9707419376810656	0.946	1.0	stim	poldrack-single-stim	s633	False	1
466.8	1.5	466.049	n/a	-1.0	2.386	columbia_card_task_fmri	n/a	n/a	-1.0	n/a	n/a	n/a	n/a	n/a	n/a	n/a	n/a	ITI	poldrack-single-stim	s633	False	0
468.441	1.649	470.09	-0.77694001243384	draw_card	1.649	columbia_card_task_fmri	16.0	0.8125	89.0	-75.0	0.1875	16.0	1.0	3.0	4.889025718538456	1.649	1.0	stim	poldrack-single-stim	s633	False	0
470.849	1.5	470.098	n/a	-1.0	2.59	columbia_card_task_fmri	n/a	n/a	-1.0	n/a	n/a	n/a	n/a	n/a	n/a	n/a	n/a	ITI	poldrack-single-stim	s633	False	0
472.694	1.827	474.521	3.485559987566161	draw_card	1.827	columbia_card_task_fmri	16.0	0.8666666666666667	89.0	-80.0	0.1333333333333333	15.0	1.0	2.0	2.004425956034474	1.827	n/a	stim	poldrack-single-stim	s633	False	1
474.525	1.967	476.492	2.5712742732804483	draw_card	1.967	columbia_card_task_fmri	16.0	0.8571428571428572	89.0	-80.0	0.1428571428571428	15.0	2.0	2.0	2.963667580354368	1.967	n/a	stim	poldrack-single-stim	s633	False	1
476.496	0.542	477.038	1.51632921833539	end_round	0.542	columbia_card_task_fmri	16.0	0.8461538461538461	71.0	-80.0	0.1538461538461538	15.0	3.0	2.0	4.007545195958777	0.542	2.0	stim	poldrack-single-stim	s633	False	1
477.796	1.5	477.045	n/a	-1.0	2.318	columbia_card_task_fmri	n/a	n/a	-1.0	n/a	n/a	n/a	n/a	n/a	n/a	n/a	n/a	ITI	poldrack-single-stim	s633	False	0
479.368	2.355	481.723	4.352226654232828	draw_card	2.355	columbia_card_task_fmri	17.0	0.8666666666666667	89.0	-80.0	0.1333333333333333	15.0	1.0	2.0	2.344347710695587	2.355	n/a	stim	poldrack-single-stim	s633	False	1
481.728	1.91	483.638	3.428417130423306	draw_card	1.91	columbia_card_task_fmri	17.0	0.8571428571428572	89.0	-80.0	0.1428571428571428	15.0	2.0	2.0	3.313582174635343	1.91	n/a	stim	poldrack-single-stim	s633	False	1
483.642	0.522	484.164	2.3624830644892367	end_round	0.522	columbia_card_task_fmri	17.0	0.8461538461538461	71.0	-80.0	0.1538461538461538	15.0	3.0	2.0	4.368334273474581	0.522	2.0	stim	poldrack-single-stim	s633	False	1
484.921	1.5	484.17	n/a	-1.0	2.59	columbia_card_task_fmri	n/a	n/a	-1.0	n/a	n/a	n/a	n/a	n/a	n/a	n/a	n/a	ITI	poldrack-single-stim	s633	False	0
486.766	1.413	488.179	0.2855599875661599	draw_card	1.413	columbia_card_task_fmri	1.0	0.9375	89.0	-15.0	0.0625	16.0	1.0	1.0	-26.74705186913039	1.413	n/a	stim	poldrack-single-stim	s633	False	1
488.182	0.578	488.76	0.2188933208994933	draw_card	0.578	columbia_card_task_fmri	1.0	0.9333333333333332	89.0	-15.0	0.0666666666666666	16.0	2.0	1.0	-26.629244335273548	0.578	n/a	stim	poldrack-single-stim	s633	False	1
488.764	0.758	489.522	0.1427028447090171	draw_card	0.758	columbia_card_task_fmri	1.0	0.9285714285714286	89.0	-15.0	0.0714285714285714	16.0	3.0	1.0	-26.50003545451507	0.758	n/a	stim	poldrack-single-stim	s633	False	1
489.526	2.01	491.536	0.0547907567969291	draw_card	2.01	columbia_card_task_fmri	1.0	0.9230769230769232	89.0	-15.0	0.0769230769230769	16.0	4.0	1.0	-26.35748624525622	2.01	n/a	stim	poldrack-single-stim	s633	False	1
491.541	0.493	492.034	-0.0477733457671734	draw_card	0.493	columbia_card_task_fmri	1.0	0.9166666666666666	89.0	-15.0	0.0833333333333333	16.0	5.0	1.0	-26.199171528922268	0.493	n/a	stim	poldrack-single-stim	s633	False	1
492.037	0.653	492.69	-0.1689854669792947	end_round	0.653	columbia_card_task_fmri	1.0	0.9090909090909092	71.0	-15.0	0.0909090909090909	16.0	6.0	1.0	-26.02201606879153	0.653	5.0	stim	poldrack-single-stim	s633	False	1
493.447	1.5	492.696	n/a	-1.0	2.386	columbia_card_task_fmri	n/a	n/a	-1.0	n/a	n/a	n/a	n/a	n/a	n/a	n/a	n/a	ITI	poldrack-single-stim	s633	False	0
495.089	4.438	499.527	3.41055998756616	draw_card	4.438	columbia_card_task_fmri	10.0	0.9375	89.0	-100.0	0.0625	16.0	1.0	1.0	-4.002256585023535	4.438	n/a	stim	poldrack-single-stim	s633	False	1
499.531	1.903	501.434	2.952226654232827	draw_card	1.903	columbia_card_task_fmri	10.0	0.9333333333333332	89.0	-100.0	0.0666666666666666	16.0	2.0	1.0	-3.190241567906249	1.903	n/a	stim	poldrack-single-stim	s633	False	1
501.438	1.523	502.961	2.428417130423304	draw_card	1.523	columbia_card_task_fmri	10.0	0.9285714285714286	89.0	-100.0	0.0714285714285714	16.0	3.0	1.0	-2.2997776596569075	1.523	n/a	stim	poldrack-single-stim	s633	False	1
502.965	0.693	503.658	1.8240215260276995	end_round	0.693	columbia_card_task_fmri	10.0	0.9230769230769232	71.0	-100.0	0.0769230769230769	16.0	4.0	1.0	-1.3175282865949782	0.693	3.0	stim	poldrack-single-stim	s633	False	1
504.413	1.5	503.662	n/a	-1.0	2.318	columbia_card_task_fmri	n/a	n/a	-1.0	n/a	n/a	n/a	n/a	n/a	n/a	n/a	n/a	ITI	poldrack-single-stim	s633	False	0
505.986	3.357	509.343	4.03555998756616	draw_card	3.357	columbia_card_task_fmri	15.0	0.875	89.0	-75.0	0.125	16.0	1.0	2.0	-0.864476260247713	3.357	1.0	stim	poldrack-single-stim	s633	False	0
510.102	1.5	509.351	n/a	-1.0	2.318	columbia_card_task_fmri	n/a	n/a	-1.0	n/a	n/a	n/a	n/a	n/a	n/a	n/a	n/a	ITI	poldrack-single-stim	s633	False	0
511.674	3.259	514.933	4.28555998756616	draw_card	3.259	columbia_card_task_fmri	16.0	0.875	89.0	-80.0	0.125	16.0	1.0	2.0	1.1197516149142466	3.259	n/a	stim	poldrack-single-stim	s633	False	1
514.936	0.922	515.858	3.485559987566161	draw_card	0.922	columbia_card_task_fmri	16.0	0.8666666666666667	89.0	-80.0	0.1333333333333333	16.0	2.0	2.0	2.004425956034474	0.922	n/a	stim	poldrack-single-stim	s633	False	1
515.862	0.903	516.765	2.5712742732804483	draw_card	0.903	columbia_card_task_fmri	16.0	0.8571428571428572	89.0	-80.0	0.1428571428571428	16.0	3.0	2.0	2.963667580354368	0.903	n/a	stim	poldrack-single-stim	s633	False	1
516.77	1.318	518.088	1.51632921833539	end_round	1.318	columbia_card_task_fmri	16.0	0.8461538461538461	71.0	-80.0	0.1538461538461538	16.0	4.0	2.0	4.007545195958777	1.318	3.0	stim	poldrack-single-stim	s633	False	1
518.845	1.5	518.094	n/a	-1.0	2.318	columbia_card_task_fmri	n/a	n/a	-1.0	n/a	n/a	n/a	n/a	n/a	n/a	n/a	n/a	ITI	poldrack-single-stim	s633	False	0
520.419	3.138	523.557	1.47305998756616	draw_card	3.138	columbia_card_task_fmri	4.0	0.6875	89.0	-5.0	0.3125	16.0	1.0	5.0	-26.449174329608155	3.138	n/a	stim	poldrack-single-stim	s633	False	1
523.561	2.631	526.192	1.2855599875661603	draw_card	2.631	columbia_card_task_fmri	4.0	0.6666666666666667	89.0	-5.0	0.3333333333333333	16.0	2.0	5.0	-26.378308357255317	2.631	n/a	stim	poldrack-single-stim	s633	False	1
526.196	2.87	529.066	1.0712742732804452	end_round	2.87	columbia_card_task_fmri	4.0	0.6428571428571428	71.0	-5.0	0.3571428571428571	16.0	3.0	5.0	-26.30868720707032	2.87	2.0	stim	poldrack-single-stim	s633	False	1
529.822	1.5	529.071	n/a	-1.0	2.386	columbia_card_task_fmri	n/a	n/a	-1.0	n/a	n/a	n/a	n/a	n/a	n/a	n/a	n/a	ITI	poldrack-single-stim	s633	False	0
531.464	1.127	532.591	-1.3811066791005042	draw_card	1.127	columbia_card_task_fmri	14.0	0.8333333333333334	89.0	-80.0	0.1666666666666666	6.0	1.0	1.0	4.402347197344888	1.127	n/a	stim	poldrack-single-stim	s633	False	1
532.595	0.959	533.554	-4.514440012433839	end_round	0.959	columbia_card_task_fmri	14.0	0.8	71.0	-80.0	0.2	6.0	2.0	1.0	6.970536055644132	0.959	1.0	stim	poldrack-single-stim	s633	False	1
534.313	1.5	533.562	n/a	-1.0	2.25	columbia_card_task_fmri	n/a	n/a	-1.0	n/a	n/a	n/a	n/a	n/a	n/a	n/a	n/a	ITI	poldrack-single-stim	s633	False	0
535.816	1.472	537.288	0.2855599875661599	draw_card	1.472	columbia_card_task_fmri	15.0	0.8333333333333334	89.0	-75.0	0.1666666666666666	6.0	1.0	1.0	2.9116869370439176	1.472	n/a	stim	poldrack-single-stim	s633	False	1
537.292	2.339	539.631	-2.71444001243384	draw_card	2.339	columbia_card_task_fmri	15.0	0.8	89.0	-75.0	0.2	6.0	2.0	1.0	5.37058424761814	2.339	2.0	stim	poldrack-single-stim	s633	False	0
540.39	1.5	539.639	n/a	-1.0	2.386	columbia_card_task_fmri	n/a	n/a	-1.0	n/a	n/a	n/a	n/a	n/a	n/a	n/a	n/a	ITI	poldrack-single-stim	s633	False	0
542.031	2.645	544.676	1.952226654232828	draw_card	2.645	columbia_card_task_fmri	16.0	0.8333333333333334	89.0	-70.0	0.1666666666666666	6.0	1.0	1.0	1.4210314880687704	2.645	n/a	stim	poldrack-single-stim	s633	False	1
544.68	1.999	546.679	-0.9144400124338392	draw_card	1.999	columbia_card_task_fmri	16.0	0.8	89.0	-70.0	0.2	6.0	2.0	1.0	3.7706369223447993	1.999	n/a	stim	poldrack-single-stim	s633	False	1
546.683	0.733	547.416	-5.21444001243384	end_round	0.733	columbia_card_task_fmri	16.0	0.75	71.0	-70.0	0.25	6.0	3.0	1.0	6.60963892721751	0.733	2.0	stim	poldrack-single-stim	s633	False	1
548.173	1.5	547.422	n/a	-1.0	2.59	columbia_card_task_fmri	n/a	n/a	-1.0	n/a	n/a	n/a	n/a	n/a	n/a	n/a	n/a	ITI	poldrack-single-stim	s633	False	0
550.018	1.948	551.966	2.53555998756616	draw_card	1.948	columbia_card_task_fmri	23.0	0.75	89.0	-60.0	0.25	8.0	1.0	2.0	5.310640393625995	1.948	n/a	stim	poldrack-single-stim	s633	False	1
551.97	0.536	552.506	-0.4287257267195518	draw_card	0.536	columbia_card_task_fmri	23.0	0.7142857142857143	89.0	-60.0	0.2857142857142857	8.0	2.0	2.0	6.866117045955917	0.536	n/a	stim	poldrack-single-stim	s633	False	1
552.51	0.501	553.011	-4.381106679100505	end_round	0.501	columbia_card_task_fmri	23.0	0.6666666666666667	71.0	-60.0	0.3333333333333333	8.0	3.0	2.0	8.497068974986647	0.501	2.0	stim	poldrack-single-stim	s633	False	1
553.768	1.5	553.017	n/a	-1.0	2.658	columbia_card_task_fmri	n/a	n/a	-1.0	n/a	n/a	n/a	n/a	n/a	n/a	n/a	n/a	ITI	poldrack-single-stim	s633	False	0
555.681	3.672	559.353	3.03555998756616	draw_card	3.672	columbia_card_task_fmri	27.0	0.75	89.0	-70.0	0.25	8.0	1.0	2.0	11.372654491516895	3.672	n/a	stim	poldrack-single-stim	s633	False	1
559.357	1.514	560.871	-0.4287257267195553	draw_card	1.514	columbia_card_task_fmri	27.0	0.7142857142857143	89.0	-70.0	0.2857142857142857	8.0	2.0	2.0	13.190515429538571	1.514	n/a	stim	poldrack-single-stim	s633	False	1
560.876	0.415	561.291	-5.047773345767169	end_round	0.415	columbia_card_task_fmri	27.0	0.6666666666666667	71.0	-70.0	0.3333333333333333	8.0	3.0	2.0	15.096581870778842	0.415	2.0	stim	poldrack-single-stim	s633	False	1
562.049	1.5	561.298	n/a	-1.0	2.386	columbia_card_task_fmri	n/a	n/a	-1.0	n/a	n/a	n/a	n/a	n/a	n/a	n/a	n/a	ITI	poldrack-single-stim	s633	False	0
563.69	2.503	566.193	-1.714440012433838	draw_card	2.503	columbia_card_task_fmri	16.0	0.7777777777777778	89.0	-65.0	0.2222222222222222	9.0	1.0	2.0	3.045578922380429	2.503	1.0	stim	poldrack-single-stim	s633	False	0
566.95	1.5	566.199	n/a	-1.0	2.386	columbia_card_task_fmri	n/a	n/a	-1.0	n/a	n/a	n/a	n/a	n/a	n/a	n/a	n/a	ITI	poldrack-single-stim	s633	False	0
568.591	2.217	570.808	3.485559987566161	draw_card	2.217	columbia_card_task_fmri	13.0	0.9	89.0	-85.0	0.1	10.0	1.0	1.0	-1.2291615185291356	2.217	1.0	stim	poldrack-single-stim	s633	False	0
571.566	1.5	570.815	n/a	-1.0	2.25	columbia_card_task_fmri	n/a	n/a	-1.0	n/a	n/a	n/a	n/a	n/a	n/a	n/a	n/a	ITI	poldrack-single-stim	s633	False	0
573.071	1.71	574.781	-1.5144400124338389	draw_card	1.71	columbia_card_task_fmri	14.0	0.8	89.0	-65.0	0.2	10.0	1.0	2.0	0.9707419376810656	1.71	n/a	stim	poldrack-single-stim	s633	False	1
574.785	0.969	575.754	-3.269995567989393	end_round	0.969	columbia_card_task_fmri	14.0	0.7777777777777778	71.0	-65.0	0.2222222222222222	10.0	2.0	2.0	2.2141301535625573	0.969	1.0	stim	poldrack-single-stim	s633	False	1
576.513	1.5	575.762	n/a	-1.0	2.318	columbia_card_task_fmri	n/a	n/a	-1.0	n/a	n/a	n/a	n/a	n/a	n/a	n/a	n/a	ITI	poldrack-single-stim	s633	False	0
578.087	1.36	579.447	-0.1144400124338386	draw_card	1.36	columbia_card_task_fmri	17.0	0.8	89.0	-70.0	0.2	10.0	1.0	2.0	4.17062329959343	1.36	n/a	stim	poldrack-single-stim	s633	False	1
579.452	0.385	579.837	-2.047773345767172	end_round	0.385	columbia_card_task_fmri	17.0	0.7777777777777778	71.0	-70.0	0.2222222222222222	10.0	2.0	2.0	5.539933683716434	0.385	1.0	stim	poldrack-single-stim	s633	False	1
580.592	1.5	579.841	n/a	-1.0	2.25	columbia_card_task_fmri	n/a	n/a	-1.0	n/a	n/a	n/a	n/a	n/a	n/a	n/a	n/a	ITI	poldrack-single-stim	s633	False	0
582.097	3.087	585.184	-1.381106679100506	draw_card	3.087	columbia_card_task_fmri	13.0	0.8333333333333334	89.0	-75.0	0.1666666666666666	12.0	1.0	2.0	2.1663585701380583	3.087	1.0	stim	poldrack-single-stim	s633	False	0
585.941	1.5	585.19	n/a	-1.0	2.25	columbia_card_task_fmri	n/a	n/a	-1.0	n/a	n/a	n/a	n/a	n/a	n/a	n/a	n/a	ITI	poldrack-single-stim	s633	False	0
587.447	1.901	589.348	0.2855599875661617	draw_card	1.901	columbia_card_task_fmri	14.0	0.8333333333333334	89.0	-70.0	0.1666666666666666	12.0	1.0	2.0	0.6757057826027122	1.901	n/a	stim	poldrack-single-stim	s633	False	1
589.353	1.517	590.87	-0.9871672851611152	draw_card	1.517	columbia_card_task_fmri	14.0	0.8181818181818181	89.0	-70.0	0.1818181818181818	12.0	2.0	2.0	1.7690572107570477	1.517	2.0	stim	poldrack-single-stim	s633	False	0
591.629	1.5	590.878	n/a	-1.0	2.386	columbia_card_task_fmri	n/a	n/a	-1.0	n/a	n/a	n/a	n/a	n/a	n/a	n/a	n/a	ITI	poldrack-single-stim	s633	False	0
593.271	3.319	596.59	0.2855599875661617	draw_card	3.319	columbia_card_task_fmri	16.0	0.8333333333333334	89.0	-80.0	0.1666666666666666	12.0	1.0	2.0	5.147678943812721	3.319	n/a	stim	poldrack-single-stim	s633	False	1
596.594	1.021	597.615	-1.1689854669792967	end_round	1.021	columbia_card_task_fmri	16.0	0.8181818181818181	71.0	-80.0	0.1818181818181818	12.0	2.0	2.0	6.397235205478381	1.021	1.0	stim	poldrack-single-stim	s633	False	1
598.373	1.5	597.622	n/a	-1.0	2.386	columbia_card_task_fmri	n/a	n/a	-1.0	n/a	n/a	n/a	n/a	n/a	n/a	n/a	n/a	ITI	poldrack-single-stim	s633	False	0
600.015	1.523	601.538	0.0855599875661606	draw_card	1.523	columbia_card_task_fmri	16.0	0.8	89.0	-65.0	0.2	15.0	1.0	3.0	1.77071008128366	1.523	n/a	stim	poldrack-single-stim	s633	False	1
601.543	1.478	603.021	-1.0715828695766958	draw_card	1.478	columbia_card_task_fmri	16.0	0.7857142857142857	89.0	-65.0	0.2142857142857142	15.0	2.0	3.0	2.607076584470392	1.478	n/a	stim	poldrack-single-stim	s633	False	1
603.026	0.399	603.425	-2.4067477047415333	end_round	0.399	columbia_card_task_fmri	16.0	0.7692307692307692	71.0	-65.0	0.2307692307692307	15.0	3.0	3.0	3.497974974726404	0.399	2.0	stim	poldrack-single-stim	s633	False	1
604.185	1.5	603.434	n/a	-1.0	2.726	columbia_card_task_fmri	n/a	n/a	-1.0	n/a	n/a	n/a	n/a	n/a	n/a	n/a	n/a	ITI	poldrack-single-stim	s633	False	0
606.167	1.939	608.106	-1.58944001243384	draw_card	1.939	columbia_card_task_fmri	15.0	0.8125	89.0	-75.0	0.1875	16.0	1.0	3.0	4.498726097661752	1.939	n/a	stim	poldrack-single-stim	s633	False	1
608.111	0.767	608.878	-2.71444001243384	draw_card	0.767	columbia_card_task_fmri	15.0	0.8	89.0	-75.0	0.2	16.0	2.0	3.0	5.37058424761814	0.767	n/a	stim	poldrack-single-stim	s633	False	1
608.884	0.495	609.379	-4.000154298148125	end_round	0.495	columbia_card_task_fmri	15.0	0.7857142857142857	71.0	-75.0	0.2142857142857142	16.0	3.0	3.0	6.2998870470215	0.495	2.0	stim	poldrack-single-stim	s633	False	1
610.139	1.5	609.388	n/a	-1.0	2.454	columbia_card_task_fmri	n/a	n/a	-1.0	n/a	n/a	n/a	n/a	n/a	n/a	n/a	n/a	ITI	poldrack-single-stim	s633	False	0
611.848	1.779	613.627	-1.02694001243384	draw_card	1.779	columbia_card_task_fmri	14.0	0.6875	89.0	-35.0	0.3125	16.0	1.0	5.0	-7.916645324385474	1.779	1.0	stim	poldrack-single-stim	s633	False	0
614.388	1.5	613.637	n/a	-1.0	2.318	columbia_card_task_fmri	n/a	n/a	-1.0	n/a	n/a	n/a	n/a	n/a	n/a	n/a	n/a	ITI	poldrack-single-stim	s633	False	0
615.962	1.599	617.561	4.152226654232827	draw_card	1.599	columbia_card_task_fmri	16.0	0.8666666666666667	89.0	-75.0	0.1333333333333333	15.0	1.0	2.0	0.3048214284827395	1.599	n/a	stim	poldrack-single-stim	s633	False	1
617.566	0.401	617.967	3.285559987566162	end_round	0.401	columbia_card_task_fmri	16.0	0.8571428571428572	71.0	-75.0	0.1428571428571428	15.0	2.0	2.0	1.214098733489628	0.401	1.0	stim	poldrack-single-stim	s633	False	1
618.726	1.5	617.975	n/a	-1.0	2.318	columbia_card_task_fmri	n/a	n/a	-1.0	n/a	n/a	n/a	n/a	n/a	n/a	n/a	n/a	ITI	poldrack-single-stim	s633	False	0
620.3	1.137	621.437	4.818893320899493	draw_card	1.137	columbia_card_task_fmri	16.0	0.8666666666666667	89.0	-70.0	0.1333333333333333	15.0	1.0	2.0	-1.3947751177905552	1.137	n/a	stim	poldrack-single-stim	s633	False	1
621.442	0.76	622.202	3.9998457018518754	draw_card	0.76	columbia_card_task_fmri	16.0	0.8571428571428572	89.0	-70.0	0.1428571428571428	15.0	2.0	2.0	-0.5354623599529411	0.76	n/a	stim	poldrack-single-stim	s633	False	1
622.208	0.951	623.159	3.0547907567969284	draw_card	0.951	columbia_card_task_fmri	16.0	0.8461538461538461	89.0	-70.0	0.1538461538461538	15.0	3.0	2.0	0.3996699411144853	0.951	n/a	stim	poldrack-single-stim	s633	False	1
623.164	0.523	623.687	1.952226654232828	end_round	0.523	columbia_card_task_fmri	16.0	0.8333333333333334	71.0	-70.0	0.1666666666666666	15.0	4.0	2.0	1.4210314880687704	0.523	3.0	stim	poldrack-single-stim	s633	False	1
624.443	1.5	623.692	n/a	-1.0	2.59	columbia_card_task_fmri	n/a	n/a	-1.0	n/a	n/a	n/a	n/a	n/a	n/a	n/a	n/a	ITI	poldrack-single-stim	s633	False	0
626.289	1.618	627.907	2.16055998756616	end_round	1.618	columbia_card_task_fmri	8.0	0.9375	71.0	-90.0	0.0625	16.0	1.0	1.0	-6.906806612791982	1.618	0.0	stim	poldrack-single-stim	s633	False	1
628.667	1.5	627.916	n/a	-1.0	2.726	columbia_card_task_fmri	n/a	n/a	-1.0	n/a	n/a	n/a	n/a	n/a	n/a	n/a	n/a	ITI	poldrack-single-stim	s633	False	0
630.65	1.863	632.513	3.72305998756616	draw_card	1.863	columbia_card_task_fmri	10.0	0.9375	89.0	-95.0	0.0625	16.0	1.0	1.0	-5.212490970593336	1.863	n/a	stim	poldrack-single-stim	s633	False	1
632.519	1.142	633.661	3.285559987566161	draw_card	1.142	columbia_card_task_fmri	10.0	0.9333333333333332	89.0	-95.0	0.0666666666666666	16.0	2.0	1.0	-4.4373899441351945	1.142	n/a	stim	poldrack-single-stim	s633	False	1
633.666	0.592	634.258	2.785559987566161	draw_card	0.592	columbia_card_task_fmri	10.0	0.9285714285714286	89.0	-95.0	0.0714285714285714	16.0	3.0	1.0	-3.587406014750627	0.592	n/a	stim	poldrack-single-stim	s633	False	1
634.263	0.634	634.897	2.2086369106430834	end_round	0.634	columbia_card_task_fmri	10.0	0.9230769230769232	71.0	-95.0	0.0769230769230769	16.0	4.0	1.0	-2.6498088288572923	0.634	3.0	stim	poldrack-single-stim	s633	False	1
635.657	1.5	634.906	n/a	-1.0	2.522	columbia_card_task_fmri	n/a	n/a	-1.0	n/a	n/a	n/a	n/a	n/a	n/a	n/a	n/a	ITI	poldrack-single-stim	s633	False	0
637.436	2.642	640.078	4.66055998756616	draw_card	2.642	columbia_card_task_fmri	15.0	0.875	89.0	-70.0	0.125	16.0	1.0	2.0	-2.5179902579732563	2.642	n/a	stim	poldrack-single-stim	s633	False	1
640.084	0.611	640.695	3.952226654232826	draw_card	0.611	columbia_card_task_fmri	15.0	0.8666666666666667	89.0	-70.0	0.1333333333333333	16.0	2.0	2.0	-1.7346933453587603	0.611	n/a	stim	poldrack-single-stim	s633	False	1
640.7	0.846	641.546	3.1427028447090177	draw_card	0.846	columbia_card_task_fmri	15.0	0.8571428571428572	89.0	-70.0	0.1428571428571428	16.0	3.0	2.0	-0.8853735278352772	0.846	n/a	stim	poldrack-single-stim	s633	False	1
641.551	0.562	642.113	2.2086369106430817	draw_card	0.562	columbia_card_task_fmri	15.0	0.8461538461538461	89.0	-70.0	0.1538461538461538	16.0	4.0	2.0	0.038884186753922	0.562	n/a	stim	poldrack-single-stim	s633	False	1
642.118	0.459	642.577	1.118893320899494	draw_card	0.459	columbia_card_task_fmri	15.0	0.8333333333333334	89.0	-70.0	0.1666666666666666	16.0	5.0	2.0	1.0483684571875749	0.459	n/a	stim	poldrack-single-stim	s633	False	1
642.582	1.062	643.644	-0.1689854669792968	end_round	1.062	columbia_card_task_fmri	15.0	0.8181818181818181	71.0	-70.0	0.1818181818181818	16.0	6.0	2.0	2.154737014034396	1.062	5.0	stim	poldrack-single-stim	s633	False	1
644.403	1.5	643.652	n/a	-1.0	3.134	columbia_card_task_fmri	n/a	n/a	-1.0	n/a	n/a	n/a	n/a	n/a	n/a	n/a	n/a	ITI	poldrack-single-stim	s633	False	0
646.793	2.919	649.712	3.66055998756616	draw_card	2.919	columbia_card_task_fmri	16.0	0.875	89.0	-85.0	0.125	16.0	1.0	2.0	2.773282613480632	2.919	n/a	stim	poldrack-single-stim	s633	False	1
649.717	1.34	651.057	2.8188933208994933	draw_card	1.34	columbia_card_task_fmri	16.0	0.8666666666666667	89.0	-85.0	0.1333333333333333	16.0	2.0	2.0	3.704037279615165	1.34	n/a	stim	poldrack-single-stim	s633	False	1
651.063	0.59	651.653	1.856988558994733	draw_card	0.59	columbia_card_task_fmri	16.0	0.8571428571428572	89.0	-85.0	0.1428571428571428	16.0	3.0	2.0	4.713243029224422	0.59	3.0	stim	poldrack-single-stim	s633	False	0
652.412	1.5	651.661	n/a	-1.0	2.386	columbia_card_task_fmri	n/a	n/a	-1.0	n/a	n/a	n/a	n/a	n/a	n/a	n/a	n/a	ITI	poldrack-single-stim	s633	False	0
