duration	onset	block_duration	movement_onset	planning	condition	exp_stage	experiment_exp_id	key_press	problem_id	response_time	trial_id	trial_type	worker_id	junk
3.192	3.005	3.192	6.197	1	UA_with_intermediate	practice	ward_and_allport	71	0.0	3.192	to_hand	poldrack-single-stim	s634	False
0.1	6.198	0.435	6.633	0	UA_with_intermediate	practice	ward_and_allport	82	0.0	0.435	to_board	poldrack-single-stim	s634	False
0.1	6.635	0.953	7.588	0	UA_with_intermediate	practice	ward_and_allport	71	0.0	0.953	to_hand	poldrack-single-stim	s634	False
0.1	7.589	0.291	7.88	0	UA_with_intermediate	practice	ward_and_allport	89	0.0	0.291	to_board	poldrack-single-stim	s634	False
0.1	7.881	0.464	8.345	0	UA_with_intermediate	practice	ward_and_allport	82	0.0	0.464	to_hand	poldrack-single-stim	s634	False
0.1	8.346	0.255	8.601	0	UA_with_intermediate	practice	ward_and_allport	89	0.0	0.255	to_board	poldrack-single-stim	s634	False
1.0	8.605	2.5	8.604	0	UA_with_intermediate	practice	ward_and_allport	-1	0.0	n/a	feedback	poldrack-single-stim	s634	False
3.367	11.108	3.367	14.475	1	UA_with_intermediate	practice	ward_and_allport	89	1.0	3.367	to_hand	poldrack-single-stim	s634	False
0.1	14.476	0.32	14.796	0	UA_with_intermediate	practice	ward_and_allport	82	1.0	0.32	to_board	poldrack-single-stim	s634	False
0.1	14.798	0.379	15.177	0	UA_with_intermediate	practice	ward_and_allport	71	1.0	0.379	to_hand	poldrack-single-stim	s634	False
0.1	15.178	0.312	15.49	0	UA_with_intermediate	practice	ward_and_allport	89	1.0	0.312	to_board	poldrack-single-stim	s634	False
0.1	15.492	0.473	15.965	0	UA_with_intermediate	practice	ward_and_allport	82	1.0	0.473	to_hand	poldrack-single-stim	s634	False
0.1	15.966	0.208	16.174	0	UA_with_intermediate	practice	ward_and_allport	89	1.0	0.208	to_board	poldrack-single-stim	s634	False
1.0	16.176	2.1	16.175	0	UA_with_intermediate	practice	ward_and_allport	-1	1.0	n/a	feedback	poldrack-single-stim	s634	False
2.831	18.278	2.831	21.109	1	UA_without_intermediate	practice	ward_and_allport	82	2.0	2.831	to_hand	poldrack-single-stim	s634	False
0.1	21.11	0.292	21.402	0	UA_without_intermediate	practice	ward_and_allport	89	2.0	0.292	to_board	poldrack-single-stim	s634	False
0.1	21.403	0.707	22.11	0	UA_without_intermediate	practice	ward_and_allport	71	2.0	0.707	to_hand	poldrack-single-stim	s634	False
0.1	22.112	0.304	22.416	0	UA_without_intermediate	practice	ward_and_allport	89	2.0	0.304	to_board	poldrack-single-stim	s634	False
0.1	22.417	0.381	22.798	0	UA_without_intermediate	practice	ward_and_allport	71	2.0	0.381	to_hand	poldrack-single-stim	s634	False
0.1	22.8	0.296	23.096	0	UA_without_intermediate	practice	ward_and_allport	89	2.0	0.296	to_board	poldrack-single-stim	s634	False
1.0	23.098	2.2	23.097	0	UA_without_intermediate	practice	ward_and_allport	-1	2.0	n/a	feedback	poldrack-single-stim	s634	False
2.943	25.3	2.943	28.243	1	UA_without_intermediate	practice	ward_and_allport	71	3.0	2.943	to_hand	poldrack-single-stim	s634	False
0.1	28.244	0.265	28.509	0	UA_without_intermediate	practice	ward_and_allport	89	3.0	0.265	to_board	poldrack-single-stim	s634	False
0.1	28.511	0.315	28.826	0	UA_without_intermediate	practice	ward_and_allport	82	3.0	0.315	to_hand	poldrack-single-stim	s634	False
0.1	28.827	0.182	29.009	0	UA_without_intermediate	practice	ward_and_allport	89	3.0	0.182	to_board	poldrack-single-stim	s634	False
0.1	29.011	0.322	29.333	0	UA_without_intermediate	practice	ward_and_allport	71	3.0	0.322	to_hand	poldrack-single-stim	s634	False
0.1	29.334	0.298	29.632	0	UA_without_intermediate	practice	ward_and_allport	89	3.0	0.298	to_board	poldrack-single-stim	s634	False
1.0	29.634	2.0	29.633	0	UA_without_intermediate	practice	ward_and_allport	-1	3.0	n/a	feedback	poldrack-single-stim	s634	False
5.267	33.638	5.267	38.905	1	PA_with_intermediate	test	ward_and_allport	89	0.0	5.267	to_hand	poldrack-single-stim	s634	False
0.1	38.906	0.479	39.385	0	PA_with_intermediate	test	ward_and_allport	82	0.0	0.479	to_board	poldrack-single-stim	s634	False
0.1	39.387	2.158	41.545	0	PA_with_intermediate	test	ward_and_allport	89	0.0	2.158	to_hand	poldrack-single-stim	s634	False
0.1	41.546	0.289	41.835	0	PA_with_intermediate	test	ward_and_allport	71	0.0	0.289	to_board	poldrack-single-stim	s634	False
0.1	41.837	2.243	44.08	0	PA_with_intermediate	test	ward_and_allport	82	0.0	2.243	to_hand	poldrack-single-stim	s634	False
0.1	44.081	0.303	44.384	0	PA_with_intermediate	test	ward_and_allport	71	0.0	0.303	to_board	poldrack-single-stim	s634	False
1.0	44.386	2.408	44.385	0	PA_with_intermediate	test	ward_and_allport	-1	0.0	n/a	feedback	poldrack-single-stim	s634	False
3.241	46.796	3.241	50.037	1	PA_without_intermediate	test	ward_and_allport	89	1.0	3.241	to_hand	poldrack-single-stim	s634	False
0.1	50.039	0.327	50.366	0	PA_without_intermediate	test	ward_and_allport	82	1.0	0.327	to_board	poldrack-single-stim	s634	False
0.1	50.369	1.571	51.94	0	PA_without_intermediate	test	ward_and_allport	89	1.0	1.571	to_hand	poldrack-single-stim	s634	False
0.1	51.941	0.276	52.217	0	PA_without_intermediate	test	ward_and_allport	71	1.0	0.276	to_board	poldrack-single-stim	s634	False
0.1	52.22	0.42	52.64	0	PA_without_intermediate	test	ward_and_allport	89	1.0	0.42	to_hand	poldrack-single-stim	s634	False
0.1	52.641	0.788	53.429	0	PA_without_intermediate	test	ward_and_allport	82	1.0	0.788	to_board	poldrack-single-stim	s634	False
1.0	53.431	2.68	53.43	0	PA_without_intermediate	test	ward_and_allport	-1	1.0	n/a	feedback	poldrack-single-stim	s634	False
2.567	56.113	2.567	58.68	1	PA_with_intermediate	test	ward_and_allport	82	2.0	2.567	to_hand	poldrack-single-stim	s634	False
0.1	58.681	0.858	59.539	0	PA_with_intermediate	test	ward_and_allport	71	2.0	0.858	to_board	poldrack-single-stim	s634	False
0.1	59.541	0.782	60.323	0	PA_with_intermediate	test	ward_and_allport	82	2.0	0.782	to_hand	poldrack-single-stim	s634	False
0.1	60.324	0.259	60.583	0	PA_with_intermediate	test	ward_and_allport	89	2.0	0.259	to_board	poldrack-single-stim	s634	False
0.1	60.585	0.54	61.125	0	PA_with_intermediate	test	ward_and_allport	71	2.0	0.54	to_hand	poldrack-single-stim	s634	False
0.1	61.126	0.269	61.395	0	PA_with_intermediate	test	ward_and_allport	82	2.0	0.269	to_board	poldrack-single-stim	s634	False
1.0	61.399	4.72	61.398	0	PA_with_intermediate	test	ward_and_allport	-1	2.0	n/a	feedback	poldrack-single-stim	s634	False
2.121	66.122	2.121	68.243	1	PA_without_intermediate	test	ward_and_allport	82	3.0	2.121	to_hand	poldrack-single-stim	s634	False
0.1	68.244	0.311	68.555	0	PA_without_intermediate	test	ward_and_allport	71	3.0	0.311	to_board	poldrack-single-stim	s634	False
0.1	68.558	1.353	69.911	0	PA_without_intermediate	test	ward_and_allport	82	3.0	1.353	to_hand	poldrack-single-stim	s634	False
0.1	69.912	0.266	70.178	0	PA_without_intermediate	test	ward_and_allport	89	3.0	0.266	to_board	poldrack-single-stim	s634	False
0.1	70.181	0.555	70.736	0	PA_without_intermediate	test	ward_and_allport	82	3.0	0.555	to_hand	poldrack-single-stim	s634	False
0.1	70.737	0.334	71.071	0	PA_without_intermediate	test	ward_and_allport	71	3.0	0.334	to_board	poldrack-single-stim	s634	False
1.0	71.074	3.224	71.073	0	PA_without_intermediate	test	ward_and_allport	-1	3.0	n/a	feedback	poldrack-single-stim	s634	False
2.195	74.302	2.195	76.497	1	PA_without_intermediate	test	ward_and_allport	82	4.0	2.195	to_hand	poldrack-single-stim	s634	False
0.1	76.498	0.326	76.824	0	PA_without_intermediate	test	ward_and_allport	89	4.0	0.326	to_board	poldrack-single-stim	s634	False
0.1	76.827	1.062	77.889	0	PA_without_intermediate	test	ward_and_allport	82	4.0	1.062	to_hand	poldrack-single-stim	s634	False
0.1	77.891	0.226	78.117	0	PA_without_intermediate	test	ward_and_allport	89	4.0	0.226	to_board	poldrack-single-stim	s634	False
0.1	78.12	1.025	79.145	0	PA_without_intermediate	test	ward_and_allport	82	4.0	1.025	to_hand	poldrack-single-stim	s634	False
0.1	79.147	0.376	79.523	0	PA_without_intermediate	test	ward_and_allport	89	4.0	0.376	to_board	poldrack-single-stim	s634	False
0.1	79.525	3.671	83.196	0	PA_without_intermediate	test	ward_and_allport	89	4.0	3.671	to_hand	poldrack-single-stim	s634	False
0.1	83.197	0.692	83.889	0	PA_without_intermediate	test	ward_and_allport	71	4.0	0.692	to_board	poldrack-single-stim	s634	False
1.0	83.892	2.272	83.891	0	PA_without_intermediate	test	ward_and_allport	-1	4.0	n/a	feedback	poldrack-single-stim	s634	False
2.92	86.167	2.92	89.087	1	PA_with_intermediate	test	ward_and_allport	82	5.0	2.92	to_hand	poldrack-single-stim	s634	False
0.1	89.089	0.293	89.382	0	PA_with_intermediate	test	ward_and_allport	89	5.0	0.293	to_board	poldrack-single-stim	s634	False
0.1	89.384	0.7	90.084	0	PA_with_intermediate	test	ward_and_allport	82	5.0	0.7	to_hand	poldrack-single-stim	s634	False
0.1	90.085	0.276	90.361	0	PA_with_intermediate	test	ward_and_allport	71	5.0	0.276	to_board	poldrack-single-stim	s634	False
0.1	90.364	0.37	90.734	0	PA_with_intermediate	test	ward_and_allport	89	5.0	0.37	to_hand	poldrack-single-stim	s634	False
0.1	90.735	0.295	91.03	0	PA_with_intermediate	test	ward_and_allport	82	5.0	0.295	to_board	poldrack-single-stim	s634	False
1.0	91.034	3.632	91.033	0	PA_with_intermediate	test	ward_and_allport	-1	5.0	n/a	feedback	poldrack-single-stim	s634	False
2.104	94.67	2.104	96.774	1	PA_without_intermediate	test	ward_and_allport	89	6.0	2.104	to_hand	poldrack-single-stim	s634	False
0.1	96.775	0.288	97.063	0	PA_without_intermediate	test	ward_and_allport	82	6.0	0.288	to_board	poldrack-single-stim	s634	False
0.1	97.066	0.741	97.807	0	PA_without_intermediate	test	ward_and_allport	89	6.0	0.741	to_hand	poldrack-single-stim	s634	False
0.1	97.809	0.324	98.133	0	PA_without_intermediate	test	ward_and_allport	82	6.0	0.324	to_board	poldrack-single-stim	s634	False
0.1	98.136	0.486	98.622	0	PA_without_intermediate	test	ward_and_allport	89	6.0	0.486	to_hand	poldrack-single-stim	s634	False
0.1	98.623	0.27	98.893	0	PA_without_intermediate	test	ward_and_allport	71	6.0	0.27	to_board	poldrack-single-stim	s634	False
1.0	98.896	2.408	98.895	0	PA_without_intermediate	test	ward_and_allport	-1	6.0	n/a	feedback	poldrack-single-stim	s634	False
2.628	101.308	2.628	103.936	1	PA_without_intermediate	test	ward_and_allport	82	7.0	2.628	to_hand	poldrack-single-stim	s634	False
0.1	103.938	0.182	104.12	0	PA_without_intermediate	test	ward_and_allport	89	7.0	0.182	to_board	poldrack-single-stim	s634	False
0.1	104.123	0.658	104.781	0	PA_without_intermediate	test	ward_and_allport	82	7.0	0.658	to_hand	poldrack-single-stim	s634	False
0.1	104.782	0.534	105.316	0	PA_without_intermediate	test	ward_and_allport	71	7.0	0.534	to_board	poldrack-single-stim	s634	False
0.1	105.32	0.545	105.865	0	PA_without_intermediate	test	ward_and_allport	82	7.0	0.545	to_hand	poldrack-single-stim	s634	False
0.1	105.866	0.222	106.088	0	PA_without_intermediate	test	ward_and_allport	89	7.0	0.222	to_board	poldrack-single-stim	s634	False
1.0	106.092	2.0	106.091	0	PA_without_intermediate	test	ward_and_allport	-1	7.0	n/a	feedback	poldrack-single-stim	s634	False
2.34	108.094	2.34	110.434	1	PA_with_intermediate	test	ward_and_allport	71	8.0	2.34	to_hand	poldrack-single-stim	s634	False
0.1	110.435	0.532	110.967	0	PA_with_intermediate	test	ward_and_allport	89	8.0	0.532	to_board	poldrack-single-stim	s634	False
0.1	110.971	0.453	111.424	0	PA_with_intermediate	test	ward_and_allport	71	8.0	0.453	to_hand	poldrack-single-stim	s634	False
0.1	111.425	0.372	111.797	0	PA_with_intermediate	test	ward_and_allport	71	8.0	0.372	to_board	poldrack-single-stim	s634	False
0.1	111.8	0.56	112.36	0	PA_with_intermediate	test	ward_and_allport	71	8.0	0.56	to_hand	poldrack-single-stim	s634	False
0.1	112.361	0.23	112.591	0	PA_with_intermediate	test	ward_and_allport	82	8.0	0.23	to_board	poldrack-single-stim	s634	False
0.1	112.595	0.245	112.84	0	PA_with_intermediate	test	ward_and_allport	89	8.0	0.245	to_hand	poldrack-single-stim	s634	False
0.1	112.841	0.302	113.143	0	PA_with_intermediate	test	ward_and_allport	71	8.0	0.302	to_board	poldrack-single-stim	s634	False
1.0	113.147	2.0	113.146	0	PA_with_intermediate	test	ward_and_allport	-1	8.0	n/a	feedback	poldrack-single-stim	s634	False
2.086	115.151	2.086	117.237	1	PA_with_intermediate	test	ward_and_allport	71	9.0	2.086	to_hand	poldrack-single-stim	s634	False
0.1	117.239	0.299	117.538	0	PA_with_intermediate	test	ward_and_allport	82	9.0	0.299	to_board	poldrack-single-stim	s634	False
0.1	117.543	0.645	118.188	0	PA_with_intermediate	test	ward_and_allport	71	9.0	0.645	to_hand	poldrack-single-stim	s634	False
0.1	118.188	0.19	118.378	0	PA_with_intermediate	test	ward_and_allport	89	9.0	0.19	to_board	poldrack-single-stim	s634	False
0.1	118.381	0.271	118.652	0	PA_with_intermediate	test	ward_and_allport	71	9.0	0.271	to_hand	poldrack-single-stim	s634	False
0.1	118.653	0.528	119.181	0	PA_with_intermediate	test	ward_and_allport	71	9.0	0.528	to_board	poldrack-single-stim	s634	False
0.1	119.186	0.335	119.521	0	PA_with_intermediate	test	ward_and_allport	82	9.0	0.335	to_hand	poldrack-single-stim	s634	False
0.1	119.521	0.298	119.819	0	PA_with_intermediate	test	ward_and_allport	71	9.0	0.298	to_board	poldrack-single-stim	s634	False
1.0	119.824	2.0	119.823	0	PA_with_intermediate	test	ward_and_allport	-1	9.0	n/a	feedback	poldrack-single-stim	s634	False
2.273	121.828	2.273	124.101	1	PA_with_intermediate	test	ward_and_allport	82	10.0	2.273	to_hand	poldrack-single-stim	s634	False
0.1	124.102	0.314	124.416	0	PA_with_intermediate	test	ward_and_allport	71	10.0	0.314	to_board	poldrack-single-stim	s634	False
0.1	124.42	0.549	124.969	0	PA_with_intermediate	test	ward_and_allport	82	10.0	0.549	to_hand	poldrack-single-stim	s634	False
0.1	124.97	0.243	125.213	0	PA_with_intermediate	test	ward_and_allport	89	10.0	0.243	to_board	poldrack-single-stim	s634	False
0.1	125.217	0.396	125.613	0	PA_with_intermediate	test	ward_and_allport	71	10.0	0.396	to_hand	poldrack-single-stim	s634	False
0.1	125.614	0.251	125.865	0	PA_with_intermediate	test	ward_and_allport	82	10.0	0.251	to_board	poldrack-single-stim	s634	False
1.0	125.869	2.408	125.868	0	PA_with_intermediate	test	ward_and_allport	-1	10.0	n/a	feedback	poldrack-single-stim	s634	False
1.648	128.282	1.648	129.93	1	PA_without_intermediate	test	ward_and_allport	71	11.0	1.648	to_hand	poldrack-single-stim	s634	False
0.1	129.932	0.296	130.228	0	PA_without_intermediate	test	ward_and_allport	82	11.0	0.296	to_board	poldrack-single-stim	s634	False
0.1	130.233	0.468	130.701	0	PA_without_intermediate	test	ward_and_allport	71	11.0	0.468	to_hand	poldrack-single-stim	s634	False
0.1	130.702	0.293	130.995	0	PA_without_intermediate	test	ward_and_allport	89	11.0	0.293	to_board	poldrack-single-stim	s634	False
0.1	131.0	0.42	131.42	0	PA_without_intermediate	test	ward_and_allport	71	11.0	0.42	to_hand	poldrack-single-stim	s634	False
0.1	131.421	0.346	131.767	0	PA_without_intermediate	test	ward_and_allport	82	11.0	0.346	to_board	poldrack-single-stim	s634	False
1.0	131.772	2.816	131.771	0	PA_without_intermediate	test	ward_and_allport	-1	11.0	n/a	feedback	poldrack-single-stim	s634	False
2.138	134.592	2.138	136.73	1	PA_with_intermediate	test	ward_and_allport	82	12.0	2.138	to_hand	poldrack-single-stim	s634	False
0.1	136.731	0.329	137.06	0	PA_with_intermediate	test	ward_and_allport	89	12.0	0.329	to_board	poldrack-single-stim	s634	False
0.1	137.066	0.542	137.608	0	PA_with_intermediate	test	ward_and_allport	82	12.0	0.542	to_hand	poldrack-single-stim	s634	False
0.1	137.61	0.254	137.864	0	PA_with_intermediate	test	ward_and_allport	71	12.0	0.254	to_board	poldrack-single-stim	s634	False
0.1	137.868	0.294	138.162	0	PA_with_intermediate	test	ward_and_allport	89	12.0	0.294	to_hand	poldrack-single-stim	s634	False
0.1	138.163	0.239	138.402	0	PA_with_intermediate	test	ward_and_allport	71	12.0	0.239	to_board	poldrack-single-stim	s634	False
1.0	138.408	4.176	138.407	0	PA_with_intermediate	test	ward_and_allport	-1	12.0	n/a	feedback	poldrack-single-stim	s634	False
1.682	142.588	1.682	144.27	1	PA_with_intermediate	test	ward_and_allport	89	13.0	1.682	to_hand	poldrack-single-stim	s634	False
0.1	144.271	0.285	144.556	0	PA_with_intermediate	test	ward_and_allport	71	13.0	0.285	to_board	poldrack-single-stim	s634	False
0.1	144.561	0.501	145.062	0	PA_with_intermediate	test	ward_and_allport	71	13.0	0.501	to_hand	poldrack-single-stim	s634	False
0.1	145.064	0.529	145.593	0	PA_with_intermediate	test	ward_and_allport	71	13.0	0.529	to_board	poldrack-single-stim	s634	False
0.1	145.597	0.337	145.934	0	PA_with_intermediate	test	ward_and_allport	89	13.0	0.337	to_hand	poldrack-single-stim	s634	False
0.1	145.934	0.259	146.193	0	PA_with_intermediate	test	ward_and_allport	82	13.0	0.259	to_board	poldrack-single-stim	s634	False
0.1	146.198	0.5	146.698	0	PA_with_intermediate	test	ward_and_allport	71	13.0	0.5	to_hand	poldrack-single-stim	s634	False
0.1	146.698	0.24	146.938	0	PA_with_intermediate	test	ward_and_allport	89	13.0	0.24	to_board	poldrack-single-stim	s634	False
1.0	146.943	3.36	146.942	0	PA_with_intermediate	test	ward_and_allport	-1	13.0	n/a	feedback	poldrack-single-stim	s634	False
1.854	150.308	1.854	152.162	1	PA_with_intermediate	test	ward_and_allport	71	14.0	1.854	to_hand	poldrack-single-stim	s634	False
0.1	152.163	0.359	152.522	0	PA_with_intermediate	test	ward_and_allport	82	14.0	0.359	to_board	poldrack-single-stim	s634	False
0.1	152.528	0.269	152.797	0	PA_with_intermediate	test	ward_and_allport	71	14.0	0.269	to_hand	poldrack-single-stim	s634	False
0.1	152.798	0.31	153.108	0	PA_with_intermediate	test	ward_and_allport	89	14.0	0.31	to_board	poldrack-single-stim	s634	False
0.1	153.113	0.407	153.52	0	PA_with_intermediate	test	ward_and_allport	82	14.0	0.407	to_hand	poldrack-single-stim	s634	False
0.1	153.521	0.213	153.734	0	PA_with_intermediate	test	ward_and_allport	71	14.0	0.213	to_board	poldrack-single-stim	s634	False
1.0	153.738	2.0	153.737	0	PA_with_intermediate	test	ward_and_allport	-1	14.0	n/a	feedback	poldrack-single-stim	s634	False
1.553	160.746	1.553	162.299	1	PA_without_intermediate	test	ward_and_allport	82	15.0	1.553	to_hand	poldrack-single-stim	s634	False
0.1	162.3	0.317	162.617	0	PA_without_intermediate	test	ward_and_allport	89	15.0	0.317	to_board	poldrack-single-stim	s634	False
0.1	162.621	1.568	164.189	0	PA_without_intermediate	test	ward_and_allport	82	15.0	1.568	to_hand	poldrack-single-stim	s634	False
0.1	164.191	0.194	164.385	0	PA_without_intermediate	test	ward_and_allport	71	15.0	0.194	to_board	poldrack-single-stim	s634	False
0.1	164.39	0.379	164.769	0	PA_without_intermediate	test	ward_and_allport	82	15.0	0.379	to_hand	poldrack-single-stim	s634	False
0.1	164.77	0.28	165.05	0	PA_without_intermediate	test	ward_and_allport	89	15.0	0.28	to_board	poldrack-single-stim	s634	False
1.0	165.055	2.408	165.054	0	PA_without_intermediate	test	ward_and_allport	-1	15.0	n/a	feedback	poldrack-single-stim	s634	False
3.838	167.467	3.838	171.305	1	PA_with_intermediate	test	ward_and_allport	82	16.0	3.838	to_hand	poldrack-single-stim	s634	False
0.1	171.306	0.413	171.719	0	PA_with_intermediate	test	ward_and_allport	71	16.0	0.413	to_board	poldrack-single-stim	s634	False
0.1	171.723	0.531	172.254	0	PA_with_intermediate	test	ward_and_allport	82	16.0	0.531	to_hand	poldrack-single-stim	s634	False
0.1	172.255	0.327	172.582	0	PA_with_intermediate	test	ward_and_allport	89	16.0	0.327	to_board	poldrack-single-stim	s634	False
0.1	172.587	0.689	173.276	0	PA_with_intermediate	test	ward_and_allport	71	16.0	0.689	to_hand	poldrack-single-stim	s634	False
0.1	173.277	0.201	173.478	0	PA_with_intermediate	test	ward_and_allport	89	16.0	0.201	to_board	poldrack-single-stim	s634	False
1.0	173.483	2.816	173.482	0	PA_with_intermediate	test	ward_and_allport	-1	16.0	n/a	feedback	poldrack-single-stim	s634	False
2.789	176.305	2.789	179.094	1	PA_without_intermediate	test	ward_and_allport	89	17.0	2.789	to_hand	poldrack-single-stim	s634	False
0.1	179.096	0.252	179.348	0	PA_without_intermediate	test	ward_and_allport	71	17.0	0.252	to_board	poldrack-single-stim	s634	False
0.1	179.352	0.621	179.973	0	PA_without_intermediate	test	ward_and_allport	89	17.0	0.621	to_hand	poldrack-single-stim	s634	False
0.1	179.974	0.804	180.778	0	PA_without_intermediate	test	ward_and_allport	71	17.0	0.804	to_board	poldrack-single-stim	s634	False
0.1	180.783	0.375	181.158	0	PA_without_intermediate	test	ward_and_allport	89	17.0	0.375	to_hand	poldrack-single-stim	s634	False
0.1	181.159	0.246	181.405	0	PA_without_intermediate	test	ward_and_allport	82	17.0	0.246	to_board	poldrack-single-stim	s634	False
1.0	181.409	3.088	181.408	0	PA_without_intermediate	test	ward_and_allport	-1	17.0	n/a	feedback	poldrack-single-stim	s634	False
1.61	184.504	1.61	186.114	1	PA_without_intermediate	test	ward_and_allport	82	18.0	1.61	to_hand	poldrack-single-stim	s634	False
0.1	186.115	0.357	186.472	0	PA_without_intermediate	test	ward_and_allport	71	18.0	0.357	to_board	poldrack-single-stim	s634	False
0.1	186.477	0.375	186.852	0	PA_without_intermediate	test	ward_and_allport	82	18.0	0.375	to_hand	poldrack-single-stim	s634	False
0.1	186.853	0.277	187.13	0	PA_without_intermediate	test	ward_and_allport	71	18.0	0.277	to_board	poldrack-single-stim	s634	False
0.1	187.136	0.707	187.843	0	PA_without_intermediate	test	ward_and_allport	82	18.0	0.707	to_hand	poldrack-single-stim	s634	False
0.1	187.844	0.207	188.051	0	PA_without_intermediate	test	ward_and_allport	89	18.0	0.207	to_board	poldrack-single-stim	s634	False
1.0	188.056	2.136	188.055	0	PA_without_intermediate	test	ward_and_allport	-1	18.0	n/a	feedback	poldrack-single-stim	s634	False
1.814	190.197	1.814	192.011	1	PA_without_intermediate	test	ward_and_allport	71	19.0	1.814	to_hand	poldrack-single-stim	s634	False
0.1	192.012	0.3	192.312	0	PA_without_intermediate	test	ward_and_allport	89	19.0	0.3	to_board	poldrack-single-stim	s634	False
0.1	192.316	0.313	192.629	0	PA_without_intermediate	test	ward_and_allport	71	19.0	0.313	to_hand	poldrack-single-stim	s634	False
0.1	192.631	0.399	193.03	0	PA_without_intermediate	test	ward_and_allport	89	19.0	0.399	to_board	poldrack-single-stim	s634	False
0.1	193.036	0.615	193.651	0	PA_without_intermediate	test	ward_and_allport	71	19.0	0.615	to_hand	poldrack-single-stim	s634	False
0.1	193.653	0.217	193.87	0	PA_without_intermediate	test	ward_and_allport	82	19.0	0.217	to_board	poldrack-single-stim	s634	False
1.0	193.877	7.168	193.876	0	PA_without_intermediate	test	ward_and_allport	-1	19.0	n/a	feedback	poldrack-single-stim	s634	False
2.495	201.049	2.495	203.544	1	PA_without_intermediate	test	ward_and_allport	89	20.0	2.495	to_hand	poldrack-single-stim	s634	False
0.1	203.545	0.237	203.782	0	PA_without_intermediate	test	ward_and_allport	71	20.0	0.237	to_board	poldrack-single-stim	s634	False
0.1	203.788	0.326	204.114	0	PA_without_intermediate	test	ward_and_allport	89	20.0	0.326	to_hand	poldrack-single-stim	s634	False
0.1	204.115	0.339	204.454	0	PA_without_intermediate	test	ward_and_allport	82	20.0	0.339	to_board	poldrack-single-stim	s634	False
0.1	204.461	0.564	205.025	0	PA_without_intermediate	test	ward_and_allport	89	20.0	0.564	to_hand	poldrack-single-stim	s634	False
0.1	205.026	0.262	205.288	0	PA_without_intermediate	test	ward_and_allport	71	20.0	0.262	to_board	poldrack-single-stim	s634	False
1.0	205.295	2.816	205.294	0	PA_without_intermediate	test	ward_and_allport	-1	20.0	n/a	feedback	poldrack-single-stim	s634	False
2.027	208.117	2.027	210.144	1	PA_with_intermediate	test	ward_and_allport	89	21.0	2.027	to_hand	poldrack-single-stim	s634	False
0.1	210.145	0.32	210.465	0	PA_with_intermediate	test	ward_and_allport	82	21.0	0.32	to_board	poldrack-single-stim	s634	False
0.1	210.472	0.733	211.205	0	PA_with_intermediate	test	ward_and_allport	89	21.0	0.733	to_hand	poldrack-single-stim	s634	False
0.1	211.206	0.213	211.419	0	PA_with_intermediate	test	ward_and_allport	71	21.0	0.213	to_board	poldrack-single-stim	s634	False
0.1	211.426	0.445	211.871	0	PA_with_intermediate	test	ward_and_allport	82	21.0	0.445	to_hand	poldrack-single-stim	s634	False
0.1	211.872	0.27	212.142	0	PA_with_intermediate	test	ward_and_allport	71	21.0	0.27	to_board	poldrack-single-stim	s634	False
0.1	212.15	0.567	212.717	0	PA_with_intermediate	test	ward_and_allport	71	21.0	0.567	to_hand	poldrack-single-stim	s634	False
0.1	212.718	0.226	212.944	0	PA_with_intermediate	test	ward_and_allport	89	21.0	0.226	to_board	poldrack-single-stim	s634	False
1.0	212.95	2.952	212.949	0	PA_with_intermediate	test	ward_and_allport	-1	21.0	n/a	feedback	poldrack-single-stim	s634	False
1.95	215.91	1.95	217.86	1	PA_with_intermediate	test	ward_and_allport	82	22.0	1.95	to_hand	poldrack-single-stim	s634	False
0.1	217.861	0.281	218.142	0	PA_with_intermediate	test	ward_and_allport	89	22.0	0.281	to_board	poldrack-single-stim	s634	False
0.1	218.149	0.58	218.729	0	PA_with_intermediate	test	ward_and_allport	82	22.0	0.58	to_hand	poldrack-single-stim	s634	False
0.1	218.731	0.185	218.916	0	PA_with_intermediate	test	ward_and_allport	71	22.0	0.185	to_board	poldrack-single-stim	s634	False
0.1	218.923	0.312	219.235	0	PA_with_intermediate	test	ward_and_allport	89	22.0	0.312	to_hand	poldrack-single-stim	s634	False
0.1	219.236	0.262	219.498	0	PA_with_intermediate	test	ward_and_allport	82	22.0	0.262	to_board	poldrack-single-stim	s634	False
1.0	219.505	2.136	219.504	0	PA_with_intermediate	test	ward_and_allport	-1	22.0	n/a	feedback	poldrack-single-stim	s634	False
1.269	221.648	1.269	222.917	1	PA_without_intermediate	test	ward_and_allport	89	23.0	1.269	to_hand	poldrack-single-stim	s634	False
0.1	222.917	0.328	223.245	0	PA_without_intermediate	test	ward_and_allport	82	23.0	0.328	to_board	poldrack-single-stim	s634	False
0.1	223.252	1.163	224.415	0	PA_without_intermediate	test	ward_and_allport	89	23.0	1.163	to_hand	poldrack-single-stim	s634	False
0.1	224.417	0.215	224.632	0	PA_without_intermediate	test	ward_and_allport	71	23.0	0.215	to_board	poldrack-single-stim	s634	False
0.1	224.638	0.212	224.85	0	PA_without_intermediate	test	ward_and_allport	89	23.0	0.212	to_hand	poldrack-single-stim	s634	False
0.1	224.851	0.331	225.182	0	PA_without_intermediate	test	ward_and_allport	82	23.0	0.331	to_board	poldrack-single-stim	s634	False
1.0	225.189	2.68	225.188	0	PA_without_intermediate	test	ward_and_allport	-1	23.0	n/a	feedback	poldrack-single-stim	s634	False
1.318	227.875	1.318	229.193	1	PA_without_intermediate	test	ward_and_allport	71	24.0	1.318	to_hand	poldrack-single-stim	s634	False
0.1	229.194	0.276	229.47	0	PA_without_intermediate	test	ward_and_allport	89	24.0	0.276	to_board	poldrack-single-stim	s634	False
0.1	229.477	0.563	230.04	0	PA_without_intermediate	test	ward_and_allport	71	24.0	0.563	to_hand	poldrack-single-stim	s634	False
0.1	230.041	0.264	230.305	0	PA_without_intermediate	test	ward_and_allport	82	24.0	0.264	to_board	poldrack-single-stim	s634	False
0.1	230.311	0.456	230.767	0	PA_without_intermediate	test	ward_and_allport	71	24.0	0.456	to_hand	poldrack-single-stim	s634	False
0.1	230.768	0.225	230.993	0	PA_without_intermediate	test	ward_and_allport	89	24.0	0.225	to_board	poldrack-single-stim	s634	False
1.0	231.0	3.088	230.999	0	PA_without_intermediate	test	ward_and_allport	-1	24.0	n/a	feedback	poldrack-single-stim	s634	False
1.812	234.098	1.812	235.91	1	PA_with_intermediate	test	ward_and_allport	71	25.0	1.812	to_hand	poldrack-single-stim	s634	False
0.1	235.911	0.253	236.164	0	PA_with_intermediate	test	ward_and_allport	89	25.0	0.253	to_board	poldrack-single-stim	s634	False
0.1	236.173	0.327	236.5	0	PA_with_intermediate	test	ward_and_allport	71	25.0	0.327	to_hand	poldrack-single-stim	s634	False
0.1	236.501	0.252	236.753	0	PA_with_intermediate	test	ward_and_allport	82	25.0	0.252	to_board	poldrack-single-stim	s634	False
0.1	236.759	0.339	237.098	0	PA_with_intermediate	test	ward_and_allport	89	25.0	0.339	to_hand	poldrack-single-stim	s634	False
0.1	237.099	0.248	237.347	0	PA_with_intermediate	test	ward_and_allport	71	25.0	0.248	to_board	poldrack-single-stim	s634	False
1.0	237.354	2.0	237.353	0	PA_with_intermediate	test	ward_and_allport	-1	25.0	n/a	feedback	poldrack-single-stim	s634	False
0.987	239.364	0.987	240.351	1	PA_without_intermediate	test	ward_and_allport	71	26.0	0.987	to_hand	poldrack-single-stim	s634	False
0.1	240.352	0.355	240.707	0	PA_without_intermediate	test	ward_and_allport	82	26.0	0.355	to_board	poldrack-single-stim	s634	False
0.1	240.714	0.774	241.488	0	PA_without_intermediate	test	ward_and_allport	71	26.0	0.774	to_hand	poldrack-single-stim	s634	False
0.1	241.489	0.256	241.745	0	PA_without_intermediate	test	ward_and_allport	82	26.0	0.256	to_board	poldrack-single-stim	s634	False
0.1	241.752	1.125	242.877	0	PA_without_intermediate	test	ward_and_allport	71	26.0	1.125	to_hand	poldrack-single-stim	s634	False
0.1	242.878	0.124	243.002	0	PA_without_intermediate	test	ward_and_allport	89	26.0	0.124	to_board	poldrack-single-stim	s634	False
1.0	243.007	2.0	243.006	0	PA_without_intermediate	test	ward_and_allport	-1	26.0	n/a	feedback	poldrack-single-stim	s634	False
2.497	245.014	2.497	247.511	1	PA_without_intermediate	test	ward_and_allport	82	27.0	2.497	to_hand	poldrack-single-stim	s634	False
0.1	247.513	0.242	247.755	0	PA_without_intermediate	test	ward_and_allport	71	27.0	0.242	to_board	poldrack-single-stim	s634	False
0.1	247.763	0.476	248.239	0	PA_without_intermediate	test	ward_and_allport	82	27.0	0.476	to_hand	poldrack-single-stim	s634	False
0.1	248.24	0.732	248.972	0	PA_without_intermediate	test	ward_and_allport	71	27.0	0.732	to_board	poldrack-single-stim	s634	False
0.1	248.981	0.337	249.318	0	PA_without_intermediate	test	ward_and_allport	82	27.0	0.337	to_hand	poldrack-single-stim	s634	False
0.1	249.32	0.223	249.543	0	PA_without_intermediate	test	ward_and_allport	89	27.0	0.223	to_board	poldrack-single-stim	s634	False
1.0	249.551	2.0	249.55	0	PA_without_intermediate	test	ward_and_allport	-1	27.0	n/a	feedback	poldrack-single-stim	s634	False
1.601	251.559	1.601	253.16	1	PA_with_intermediate	test	ward_and_allport	71	28.0	1.601	to_hand	poldrack-single-stim	s634	False
0.1	253.161	0.299	253.46	0	PA_with_intermediate	test	ward_and_allport	89	28.0	0.299	to_board	poldrack-single-stim	s634	False
0.1	253.467	0.333	253.8	0	PA_with_intermediate	test	ward_and_allport	71	28.0	0.333	to_hand	poldrack-single-stim	s634	False
0.1	253.802	0.293	254.095	0	PA_with_intermediate	test	ward_and_allport	82	28.0	0.293	to_board	poldrack-single-stim	s634	False
0.1	254.102	0.317	254.419	0	PA_with_intermediate	test	ward_and_allport	89	28.0	0.317	to_hand	poldrack-single-stim	s634	False
0.1	254.42	0.346	254.766	0	PA_with_intermediate	test	ward_and_allport	71	28.0	0.346	to_board	poldrack-single-stim	s634	False
0.1	254.772	0.706	255.478	0	PA_with_intermediate	test	ward_and_allport	71	28.0	0.706	to_hand	poldrack-single-stim	s634	False
0.1	255.479	0.314	255.793	0	PA_with_intermediate	test	ward_and_allport	82	28.0	0.314	to_board	poldrack-single-stim	s634	False
1.0	255.803	2.544	255.802	0	PA_with_intermediate	test	ward_and_allport	-1	28.0	n/a	feedback	poldrack-single-stim	s634	False
1.771	258.353	1.771	260.124	1	PA_without_intermediate	test	ward_and_allport	82	29.0	1.771	to_hand	poldrack-single-stim	s634	False
0.1	260.124	0.266	260.39	0	PA_without_intermediate	test	ward_and_allport	71	29.0	0.266	to_board	poldrack-single-stim	s634	False
0.1	260.395	0.954	261.349	0	PA_without_intermediate	test	ward_and_allport	82	29.0	0.954	to_hand	poldrack-single-stim	s634	False
0.1	261.35	0.22	261.57	0	PA_without_intermediate	test	ward_and_allport	89	29.0	0.22	to_board	poldrack-single-stim	s634	False
0.1	261.577	0.459	262.036	0	PA_without_intermediate	test	ward_and_allport	82	29.0	0.459	to_hand	poldrack-single-stim	s634	False
0.1	262.037	0.166	262.203	0	PA_without_intermediate	test	ward_and_allport	71	29.0	0.166	to_board	poldrack-single-stim	s634	False
1.0	262.214	2.272	262.213	0	PA_without_intermediate	test	ward_and_allport	-1	29.0	n/a	feedback	poldrack-single-stim	s634	False
1.917	269.495	1.917	271.412	1	PA_with_intermediate	test	ward_and_allport	71	30.0	1.917	to_hand	poldrack-single-stim	s634	False
0.1	271.413	0.316	271.729	0	PA_with_intermediate	test	ward_and_allport	82	30.0	0.316	to_board	poldrack-single-stim	s634	False
0.1	271.737	0.339	272.076	0	PA_with_intermediate	test	ward_and_allport	71	30.0	0.339	to_hand	poldrack-single-stim	s634	False
0.1	272.077	0.283	272.36	0	PA_with_intermediate	test	ward_and_allport	89	30.0	0.283	to_board	poldrack-single-stim	s634	False
0.1	272.368	0.61	272.978	0	PA_with_intermediate	test	ward_and_allport	82	30.0	0.61	to_hand	poldrack-single-stim	s634	False
0.1	272.98	0.842	273.822	0	PA_with_intermediate	test	ward_and_allport	89	30.0	0.842	to_board	poldrack-single-stim	s634	False
1.0	273.83	4.04	273.829	0	PA_with_intermediate	test	ward_and_allport	-1	30.0	n/a	feedback	poldrack-single-stim	s634	False
3.209	277.879	3.209	281.088	1	PA_with_intermediate	test	ward_and_allport	89	31.0	3.209	to_hand	poldrack-single-stim	s634	False
0.1	281.09	0.263	281.353	0	PA_with_intermediate	test	ward_and_allport	71	31.0	0.263	to_board	poldrack-single-stim	s634	False
0.1	281.361	0.366	281.727	0	PA_with_intermediate	test	ward_and_allport	89	31.0	0.366	to_hand	poldrack-single-stim	s634	False
0.1	281.728	0.315	282.043	0	PA_with_intermediate	test	ward_and_allport	82	31.0	0.315	to_board	poldrack-single-stim	s634	False
0.1	282.053	1.05	283.103	0	PA_with_intermediate	test	ward_and_allport	71	31.0	1.05	to_hand	poldrack-single-stim	s634	False
0.1	283.104	0.294	283.398	0	PA_with_intermediate	test	ward_and_allport	82	31.0	0.294	to_board	poldrack-single-stim	s634	False
1.0	283.408	2.272	283.407	0	PA_with_intermediate	test	ward_and_allport	-1	31.0	n/a	feedback	poldrack-single-stim	s634	False
2.844	285.691	2.844	288.535	1	PA_with_intermediate	test	ward_and_allport	82	32.0	2.844	to_hand	poldrack-single-stim	s634	False
0.1	288.536	0.233	288.769	0	PA_with_intermediate	test	ward_and_allport	71	32.0	0.233	to_board	poldrack-single-stim	s634	False
0.1	288.776	0.501	289.277	0	PA_with_intermediate	test	ward_and_allport	82	32.0	0.501	to_hand	poldrack-single-stim	s634	False
0.1	289.278	0.32	289.598	0	PA_with_intermediate	test	ward_and_allport	89	32.0	0.32	to_board	poldrack-single-stim	s634	False
0.1	289.606	0.797	290.403	0	PA_with_intermediate	test	ward_and_allport	71	32.0	0.797	to_hand	poldrack-single-stim	s634	False
0.1	290.404	0.19	290.594	0	PA_with_intermediate	test	ward_and_allport	89	32.0	0.19	to_board	poldrack-single-stim	s634	False
1.0	290.602	2.136	290.601	0	PA_with_intermediate	test	ward_and_allport	-1	32.0	n/a	feedback	poldrack-single-stim	s634	False
2.088	292.744	2.088	294.832	1	PA_with_intermediate	test	ward_and_allport	71	33.0	2.088	to_hand	poldrack-single-stim	s634	False
0.1	294.833	0.359	295.192	0	PA_with_intermediate	test	ward_and_allport	89	33.0	0.359	to_board	poldrack-single-stim	s634	False
0.1	295.198	0.46	295.658	0	PA_with_intermediate	test	ward_and_allport	71	33.0	0.46	to_hand	poldrack-single-stim	s634	False
0.1	295.659	0.273	295.932	0	PA_with_intermediate	test	ward_and_allport	82	33.0	0.273	to_board	poldrack-single-stim	s634	False
0.1	295.94	0.276	296.216	0	PA_with_intermediate	test	ward_and_allport	89	33.0	0.276	to_hand	poldrack-single-stim	s634	False
0.1	296.217	0.512	296.729	0	PA_with_intermediate	test	ward_and_allport	82	33.0	0.512	to_board	poldrack-single-stim	s634	False
1.0	296.738	2.0	296.737	0	PA_with_intermediate	test	ward_and_allport	-1	33.0	n/a	feedback	poldrack-single-stim	s634	False
2.963	298.745	2.963	301.708	1	PA_with_intermediate	test	ward_and_allport	71	34.0	2.963	to_hand	poldrack-single-stim	s634	False
0.1	301.71	0.392	302.102	0	PA_with_intermediate	test	ward_and_allport	82	34.0	0.392	to_board	poldrack-single-stim	s634	False
0.1	302.109	0.338	302.447	0	PA_with_intermediate	test	ward_and_allport	71	34.0	0.338	to_hand	poldrack-single-stim	s634	False
0.1	302.449	0.262	302.711	0	PA_with_intermediate	test	ward_and_allport	89	34.0	0.262	to_board	poldrack-single-stim	s634	False
0.1	302.72	1.147	303.867	0	PA_with_intermediate	test	ward_and_allport	82	34.0	1.147	to_hand	poldrack-single-stim	s634	False
0.1	303.868	0.245	304.113	0	PA_with_intermediate	test	ward_and_allport	89	34.0	0.245	to_board	poldrack-single-stim	s634	False
1.0	304.124	2.0	304.123	0	PA_with_intermediate	test	ward_and_allport	-1	34.0	n/a	feedback	poldrack-single-stim	s634	False
2.218	306.135	2.218	308.353	1	PA_without_intermediate	test	ward_and_allport	89	35.0	2.218	to_hand	poldrack-single-stim	s634	False
0.1	308.355	0.191	308.546	0	PA_without_intermediate	test	ward_and_allport	71	35.0	0.191	to_board	poldrack-single-stim	s634	False
0.1	308.556	0.446	309.002	0	PA_without_intermediate	test	ward_and_allport	89	35.0	0.446	to_hand	poldrack-single-stim	s634	False
0.1	309.004	0.305	309.309	0	PA_without_intermediate	test	ward_and_allport	82	35.0	0.305	to_board	poldrack-single-stim	s634	False
0.1	309.316	0.658	309.974	0	PA_without_intermediate	test	ward_and_allport	89	35.0	0.658	to_hand	poldrack-single-stim	s634	False
0.1	309.976	0.355	310.331	0	PA_without_intermediate	test	ward_and_allport	71	35.0	0.355	to_board	poldrack-single-stim	s634	False
1.0	310.338	2.408	310.337	0	PA_without_intermediate	test	ward_and_allport	-1	35.0	n/a	feedback	poldrack-single-stim	s634	False
2.699	312.752	2.699	315.451	1	PA_with_intermediate	test	ward_and_allport	82	36.0	2.699	to_hand	poldrack-single-stim	s634	False
0.1	315.452	1.128	316.58	0	PA_with_intermediate	test	ward_and_allport	89	36.0	1.128	to_board	poldrack-single-stim	s634	False
0.1	316.586	0.373	316.959	0	PA_with_intermediate	test	ward_and_allport	82	36.0	0.373	to_hand	poldrack-single-stim	s634	False
0.1	316.96	0.224	317.184	0	PA_with_intermediate	test	ward_and_allport	71	36.0	0.224	to_board	poldrack-single-stim	s634	False
0.1	317.193	0.298	317.491	0	PA_with_intermediate	test	ward_and_allport	89	36.0	0.298	to_hand	poldrack-single-stim	s634	False
0.1	317.492	0.31	317.802	0	PA_with_intermediate	test	ward_and_allport	71	36.0	0.31	to_board	poldrack-single-stim	s634	False
1.0	317.813	3.768	317.812	0	PA_with_intermediate	test	ward_and_allport	-1	36.0	n/a	feedback	poldrack-single-stim	s634	False
2.985	321.591	2.985	324.576	1	PA_with_intermediate	test	ward_and_allport	89	37.0	2.985	to_hand	poldrack-single-stim	s634	False
0.1	324.577	0.188	324.765	0	PA_with_intermediate	test	ward_and_allport	71	37.0	0.188	to_board	poldrack-single-stim	s634	False
0.1	324.774	0.316	325.09	0	PA_with_intermediate	test	ward_and_allport	89	37.0	0.316	to_hand	poldrack-single-stim	s634	False
0.1	325.091	0.336	325.427	0	PA_with_intermediate	test	ward_and_allport	82	37.0	0.336	to_board	poldrack-single-stim	s634	False
0.1	325.437	0.571	326.008	0	PA_with_intermediate	test	ward_and_allport	71	37.0	0.571	to_hand	poldrack-single-stim	s634	False
0.1	326.009	0.228	326.237	0	PA_with_intermediate	test	ward_and_allport	89	37.0	0.228	to_board	poldrack-single-stim	s634	False
1.0	326.248	2.68	326.247	0	PA_with_intermediate	test	ward_and_allport	-1	37.0	n/a	feedback	poldrack-single-stim	s634	False
1.585	328.937	1.585	330.522	1	PA_without_intermediate	test	ward_and_allport	89	38.0	1.585	to_hand	poldrack-single-stim	s634	False
0.1	330.523	0.287	330.81	0	PA_without_intermediate	test	ward_and_allport	71	38.0	0.287	to_board	poldrack-single-stim	s634	False
0.1	330.817	2.218	333.035	0	PA_without_intermediate	test	ward_and_allport	89	38.0	2.218	to_hand	poldrack-single-stim	s634	False
0.1	333.036	0.458	333.494	0	PA_without_intermediate	test	ward_and_allport	71	38.0	0.458	to_board	poldrack-single-stim	s634	False
0.1	333.501	0.287	333.788	0	PA_without_intermediate	test	ward_and_allport	89	38.0	0.287	to_hand	poldrack-single-stim	s634	False
0.1	333.789	0.261	334.05	0	PA_without_intermediate	test	ward_and_allport	82	38.0	0.261	to_board	poldrack-single-stim	s634	False
1.0	334.059	3.224	334.058	0	PA_without_intermediate	test	ward_and_allport	-1	38.0	n/a	feedback	poldrack-single-stim	s634	False
1.183	337.292	1.183	338.475	1	PA_without_intermediate	test	ward_and_allport	71	39.0	1.183	to_hand	poldrack-single-stim	s634	False
0.1	338.477	0.286	338.763	0	PA_without_intermediate	test	ward_and_allport	82	39.0	0.286	to_board	poldrack-single-stim	s634	False
0.1	338.772	0.64	339.412	0	PA_without_intermediate	test	ward_and_allport	71	39.0	0.64	to_hand	poldrack-single-stim	s634	False
0.1	339.413	0.538	339.951	0	PA_without_intermediate	test	ward_and_allport	89	39.0	0.538	to_board	poldrack-single-stim	s634	False
0.1	339.961	0.292	340.253	0	PA_without_intermediate	test	ward_and_allport	71	39.0	0.292	to_hand	poldrack-single-stim	s634	False
0.1	340.255	0.327	340.582	0	PA_without_intermediate	test	ward_and_allport	82	39.0	0.327	to_board	poldrack-single-stim	s634	False
1.0	340.593	3.36	340.592	0	PA_without_intermediate	test	ward_and_allport	-1	39.0	n/a	feedback	poldrack-single-stim	s634	False
1.148	343.961	1.148	345.109	1	PA_without_intermediate	test	ward_and_allport	71	40.0	1.148	to_hand	poldrack-single-stim	s634	False
0.1	345.11	0.299	345.409	0	PA_without_intermediate	test	ward_and_allport	89	40.0	0.299	to_board	poldrack-single-stim	s634	False
0.1	345.417	0.288	345.705	0	PA_without_intermediate	test	ward_and_allport	71	40.0	0.288	to_hand	poldrack-single-stim	s634	False
0.1	345.707	0.276	345.983	0	PA_without_intermediate	test	ward_and_allport	89	40.0	0.276	to_board	poldrack-single-stim	s634	False
0.1	345.993	0.56	346.553	0	PA_without_intermediate	test	ward_and_allport	71	40.0	0.56	to_hand	poldrack-single-stim	s634	False
0.1	346.554	0.309	346.863	0	PA_without_intermediate	test	ward_and_allport	82	40.0	0.309	to_board	poldrack-single-stim	s634	False
1.0	346.872	2.0	346.871	0	PA_without_intermediate	test	ward_and_allport	-1	40.0	n/a	feedback	poldrack-single-stim	s634	False
0.959	348.881	0.959	349.84	1	PA_without_intermediate	test	ward_and_allport	71	41.0	0.959	to_hand	poldrack-single-stim	s634	False
0.1	349.841	0.341	350.182	0	PA_without_intermediate	test	ward_and_allport	89	41.0	0.341	to_board	poldrack-single-stim	s634	False
0.1	350.193	0.362	350.555	0	PA_without_intermediate	test	ward_and_allport	71	41.0	0.362	to_hand	poldrack-single-stim	s634	False
0.1	350.556	0.227	350.783	0	PA_without_intermediate	test	ward_and_allport	82	41.0	0.227	to_board	poldrack-single-stim	s634	False
0.1	350.793	0.247	351.04	0	PA_without_intermediate	test	ward_and_allport	71	41.0	0.247	to_hand	poldrack-single-stim	s634	False
0.1	351.042	0.24	351.282	0	PA_without_intermediate	test	ward_and_allport	89	41.0	0.24	to_board	poldrack-single-stim	s634	False
1.0	351.29	2.408	351.289	0	PA_without_intermediate	test	ward_and_allport	-1	41.0	n/a	feedback	poldrack-single-stim	s634	False
1.695	353.707	1.695	355.402	1	PA_with_intermediate	test	ward_and_allport	89	42.0	1.695	to_hand	poldrack-single-stim	s634	False
0.1	355.403	0.282	355.685	0	PA_with_intermediate	test	ward_and_allport	82	42.0	0.282	to_board	poldrack-single-stim	s634	False
0.1	355.692	0.946	356.638	0	PA_with_intermediate	test	ward_and_allport	89	42.0	0.946	to_hand	poldrack-single-stim	s634	False
0.1	356.639	0.228	356.867	0	PA_with_intermediate	test	ward_and_allport	71	42.0	0.228	to_board	poldrack-single-stim	s634	False
0.1	356.874	0.513	357.387	0	PA_with_intermediate	test	ward_and_allport	82	42.0	0.513	to_hand	poldrack-single-stim	s634	False
0.1	357.388	0.232	357.62	0	PA_with_intermediate	test	ward_and_allport	71	42.0	0.232	to_board	poldrack-single-stim	s634	False
1.0	357.628	2.136	357.627	0	PA_with_intermediate	test	ward_and_allport	-1	42.0	n/a	feedback	poldrack-single-stim	s634	False
1.116	359.773	1.116	360.889	1	PA_without_intermediate	test	ward_and_allport	89	43.0	1.116	to_hand	poldrack-single-stim	s634	False
0.1	360.89	0.282	361.172	0	PA_without_intermediate	test	ward_and_allport	82	43.0	0.282	to_board	poldrack-single-stim	s634	False
0.1	361.18	0.92	362.1	0	PA_without_intermediate	test	ward_and_allport	89	43.0	0.92	to_hand	poldrack-single-stim	s634	False
0.1	362.101	0.35	362.451	0	PA_without_intermediate	test	ward_and_allport	82	43.0	0.35	to_board	poldrack-single-stim	s634	False
0.1	362.46	0.272	362.732	0	PA_without_intermediate	test	ward_and_allport	89	43.0	0.272	to_hand	poldrack-single-stim	s634	False
0.1	362.733	0.246	362.979	0	PA_without_intermediate	test	ward_and_allport	71	43.0	0.246	to_board	poldrack-single-stim	s634	False
1.0	362.988	5.128	362.987	0	PA_without_intermediate	test	ward_and_allport	-1	43.0	n/a	feedback	poldrack-single-stim	s634	False
0.969	368.123	0.969	369.092	1	PA_without_intermediate	test	ward_and_allport	71	44.0	0.969	to_hand	poldrack-single-stim	s634	False
0.1	369.093	0.306	369.399	0	PA_without_intermediate	test	ward_and_allport	82	44.0	0.306	to_board	poldrack-single-stim	s634	False
0.1	369.406	0.893	370.299	0	PA_without_intermediate	test	ward_and_allport	71	44.0	0.893	to_hand	poldrack-single-stim	s634	False
0.1	370.3	0.266	370.566	0	PA_without_intermediate	test	ward_and_allport	82	44.0	0.266	to_board	poldrack-single-stim	s634	False
0.1	370.573	0.398	370.971	0	PA_without_intermediate	test	ward_and_allport	71	44.0	0.398	to_hand	poldrack-single-stim	s634	False
0.1	370.972	0.185	371.157	0	PA_without_intermediate	test	ward_and_allport	89	44.0	0.185	to_board	poldrack-single-stim	s634	False
1.0	371.168	2.136	371.167	0	PA_without_intermediate	test	ward_and_allport	-1	44.0	n/a	feedback	poldrack-single-stim	s634	False
1.752	378.316	1.752	380.068	1	PA_without_intermediate	test	ward_and_allport	82	45.0	1.752	to_hand	poldrack-single-stim	s634	False
0.1	380.068	0.235	380.303	0	PA_without_intermediate	test	ward_and_allport	89	45.0	0.235	to_board	poldrack-single-stim	s634	False
0.1	380.315	0.789	381.104	0	PA_without_intermediate	test	ward_and_allport	82	45.0	0.789	to_hand	poldrack-single-stim	s634	False
0.1	381.105	0.235	381.34	0	PA_without_intermediate	test	ward_and_allport	89	45.0	0.235	to_board	poldrack-single-stim	s634	False
0.1	381.352	0.688	382.04	0	PA_without_intermediate	test	ward_and_allport	82	45.0	0.688	to_hand	poldrack-single-stim	s634	False
0.1	382.041	0.223	382.264	0	PA_without_intermediate	test	ward_and_allport	71	45.0	0.223	to_board	poldrack-single-stim	s634	False
1.0	382.276	5.264	382.275	0	PA_without_intermediate	test	ward_and_allport	-1	45.0	n/a	feedback	poldrack-single-stim	s634	False
1.535	387.552	1.535	389.087	1	PA_with_intermediate	test	ward_and_allport	89	46.0	1.535	to_hand	poldrack-single-stim	s634	False
0.1	389.088	0.327	389.415	0	PA_with_intermediate	test	ward_and_allport	71	46.0	0.327	to_board	poldrack-single-stim	s634	False
0.1	389.428	0.434	389.862	0	PA_with_intermediate	test	ward_and_allport	89	46.0	0.434	to_hand	poldrack-single-stim	s634	False
0.1	389.864	0.28	390.144	0	PA_with_intermediate	test	ward_and_allport	82	46.0	0.28	to_board	poldrack-single-stim	s634	False
0.1	390.157	0.322	390.479	0	PA_with_intermediate	test	ward_and_allport	71	46.0	0.322	to_hand	poldrack-single-stim	s634	False
0.1	390.48	0.239	390.719	0	PA_with_intermediate	test	ward_and_allport	82	46.0	0.239	to_board	poldrack-single-stim	s634	False
1.0	390.73	4.04	390.729	0	PA_with_intermediate	test	ward_and_allport	-1	46.0	n/a	feedback	poldrack-single-stim	s634	False
1.493	394.779	1.493	396.272	1	PA_with_intermediate	test	ward_and_allport	89	47.0	1.493	to_hand	poldrack-single-stim	s634	False
0.1	396.273	0.456	396.729	0	PA_with_intermediate	test	ward_and_allport	82	47.0	0.456	to_board	poldrack-single-stim	s634	False
0.1	396.736	1.21	397.946	0	PA_with_intermediate	test	ward_and_allport	89	47.0	1.21	to_hand	poldrack-single-stim	s634	False
0.1	397.947	0.304	398.251	0	PA_with_intermediate	test	ward_and_allport	71	47.0	0.304	to_board	poldrack-single-stim	s634	False
0.1	398.261	0.392	398.653	0	PA_with_intermediate	test	ward_and_allport	82	47.0	0.392	to_hand	poldrack-single-stim	s634	False
0.1	398.654	0.218	398.872	0	PA_with_intermediate	test	ward_and_allport	89	47.0	0.218	to_board	poldrack-single-stim	s634	False
1.0	398.884	2.136	398.883	0	PA_with_intermediate	test	ward_and_allport	-1	47.0	n/a	feedback	poldrack-single-stim	s634	False
