onset	duration	movement_onset	EV	action	block_duration	experiment_exp_id	gain_amount	gain_probability	key_press	loss_amount	loss_probability	num_cards	num_click_in_round	num_loss_cards	risk	response_time	total_cards	trial_id	trial_type	worker_id	junk	feedback
3.006	2.915	5.921	-2.157753745172577	end_round	2.915	columbia_card_task_fmri	12.0	0.8333333333333334	71.0	-70.0	0.1666666666666666	6.0	1.0	1.0	-0.8314601721169623	2.915	0.0	stim	poldrack-single-stim	s634	False	1
6.673	1.5	5.922	n/a	-1.0	2.25	columbia_card_task_fmri	n/a	n/a	-1.0	n/a	n/a	n/a	n/a	n/a	n/a	n/a	n/a	ITI	poldrack-single-stim	s634	False	0
8.175	3.356	11.531	-1.3244204118392424	end_round	3.356	columbia_card_task_fmri	14.0	0.8333333333333334	71.0	-75.0	0.1666666666666666	6.0	1.0	1.0	1.776975510200053	3.356	0.0	stim	poldrack-single-stim	s634	False	1
12.282	1.5	11.531	n/a	-1.0	2.386	columbia_card_task_fmri	n/a	n/a	-1.0	n/a	n/a	n/a	n/a	n/a	n/a	n/a	n/a	ITI	poldrack-single-stim	s634	False	0
13.92	4.984	18.904	0.3422462548274236	end_round	4.984	columbia_card_task_fmri	15.0	0.8333333333333334	71.0	-70.0	0.1666666666666666	6.0	1.0	1.0	0.2864345777364576	4.984	0.0	stim	poldrack-single-stim	s634	False	1
19.655	1.5	18.904	n/a	-1.0	2.59	columbia_card_task_fmri	n/a	n/a	-1.0	n/a	n/a	n/a	n/a	n/a	n/a	n/a	n/a	ITI	poldrack-single-stim	s634	False	0
21.496	1.583	23.079	1.1755795881607576	draw_card	1.583	columbia_card_task_fmri	17.0	0.8333333333333334	89.0	-75.0	0.1666666666666666	6.0	1.0	1.0	2.8948909691382383	1.583	n/a	stim	poldrack-single-stim	s634	False	1
23.083	1.127	24.21	-1.8910870785059088	draw_card	1.127	columbia_card_task_fmri	17.0	0.8	89.0	-75.0	0.2	6.0	2.0	1.0	5.408275123745248	1.127	n/a	stim	poldrack-single-stim	s634	False	1
24.211	1.23	25.441	-6.491087078505911	end_round	1.23	columbia_card_task_fmri	17.0	0.75	71.0	-75.0	0.25	6.0	3.0	1.0	8.44519391306632	1.23	2.0	stim	poldrack-single-stim	s634	False	1
26.194	1.5	25.443	n/a	-1.0	2.658	columbia_card_task_fmri	n/a	n/a	-1.0	n/a	n/a	n/a	n/a	n/a	n/a	n/a	n/a	ITI	poldrack-single-stim	s634	False	0
28.103	1.662	29.765	2.508912921494089	draw_card	1.662	columbia_card_task_fmri	24.0	0.75	89.0	-60.0	0.25	8.0	1.0	2.0	4.981380538359758	1.662	n/a	stim	poldrack-single-stim	s634	False	1
29.766	0.933	30.699	-0.4910870785059102	draw_card	0.933	columbia_card_task_fmri	24.0	0.7142857142857143	89.0	-60.0	0.2857142857142857	8.0	2.0	2.0	6.55550798748957	0.933	2.0	stim	poldrack-single-stim	s634	False	0
31.451	1.5	30.7	n/a	-1.0	2.386	columbia_card_task_fmri	n/a	n/a	-1.0	n/a	n/a	n/a	n/a	n/a	n/a	n/a	n/a	ITI	poldrack-single-stim	s634	False	0
33.089	3.173	36.262	2.508912921494089	draw_card	3.173	columbia_card_task_fmri	29.0	0.75	89.0	-75.0	0.25	8.0	1.0	2.0	13.640997113078754	3.173	n/a	stim	poldrack-single-stim	s634	False	1
36.263	0.848	37.111	-1.205372792791622	draw_card	0.848	columbia_card_task_fmri	29.0	0.7142857142857143	89.0	-75.0	0.2857142857142857	8.0	2.0	2.0	15.589975993343742	0.848	n/a	stim	poldrack-single-stim	s634	False	1
37.112	2.008	39.12	-6.157753745172575	draw_card	2.008	columbia_card_task_fmri	29.0	0.6666666666666667	89.0	-75.0	0.3333333333333333	8.0	3.0	2.0	17.6335282254253	2.008	n/a	stim	poldrack-single-stim	s634	False	1
39.122	1.117	40.239	-13.091087078505913	end_round	1.117	columbia_card_task_fmri	29.0	0.6	71.0	-75.0	0.4	8.0	4.0	2.0	19.55675187195008	1.117	3.0	stim	poldrack-single-stim	s634	False	1
40.991	1.5	40.24	n/a	-1.0	2.386	columbia_card_task_fmri	n/a	n/a	-1.0	n/a	n/a	n/a	n/a	n/a	n/a	n/a	n/a	ITI	poldrack-single-stim	s634	False	0
42.628	2.096	44.724	-1.71330930072813	draw_card	2.096	columbia_card_task_fmri	17.0	0.7777777777777778	89.0	-65.0	0.2222222222222222	9.0	1.0	2.0	2.699191692915882	2.096	n/a	stim	poldrack-single-stim	s634	False	1
44.726	0.784	45.51	-3.9910870785059114	draw_card	0.784	columbia_card_task_fmri	17.0	0.75	89.0	-65.0	0.25	9.0	2.0	2.0	4.115435981296272	0.784	2.0	stim	poldrack-single-stim	s634	False	0
46.262	1.5	45.511	n/a	-1.0	2.25	columbia_card_task_fmri	n/a	n/a	-1.0	n/a	n/a	n/a	n/a	n/a	n/a	n/a	n/a	ITI	poldrack-single-stim	s634	False	0
47.762	4.906	52.668	2.608912921494089	end_round	4.906	columbia_card_task_fmri	14.0	0.9	71.0	-95.0	0.1	10.0	1.0	1.0	1.3086859041590555	4.906	0.0	stim	poldrack-single-stim	s634	False	1
53.42	1.5	52.669	n/a	-1.0	2.318	columbia_card_task_fmri	n/a	n/a	-1.0	n/a	n/a	n/a	n/a	n/a	n/a	n/a	n/a	ITI	poldrack-single-stim	s634	False	0
54.99	1.453	56.443	-1.4910870785059105	draw_card	1.453	columbia_card_task_fmri	15.0	0.8	89.0	-65.0	0.2	10.0	1.0	2.0	0.6087665556228501	1.453	n/a	stim	poldrack-single-stim	s634	False	1
56.444	0.711	57.155	-3.2688648562836877	draw_card	0.711	columbia_card_task_fmri	15.0	0.7777777777777778	89.0	-65.0	0.2222222222222222	10.0	2.0	2.0	1.8678006879053088	0.711	n/a	stim	poldrack-single-stim	s634	False	1
57.156	2.601	59.757	-5.491087078505911	draw_card	2.601	columbia_card_task_fmri	15.0	0.75	89.0	-65.0	0.25	10.0	3.0	2.0	3.2494954659742774	2.601	n/a	stim	poldrack-single-stim	s634	False	1
59.759	0.534	60.293	-8.348229935648764	end_round	0.534	columbia_card_task_fmri	15.0	0.7142857142857143	71.0	-65.0	0.2857142857142857	10.0	4.0	2.0	4.748651043105511	0.534	3.0	stim	poldrack-single-stim	s634	False	1
61.045	1.5	60.294	n/a	-1.0	2.25	columbia_card_task_fmri	n/a	n/a	-1.0	n/a	n/a	n/a	n/a	n/a	n/a	n/a	n/a	ITI	poldrack-single-stim	s634	False	0
62.547	2.375	64.922	0.1089129214940911	draw_card	2.375	columbia_card_task_fmri	17.0	0.8	89.0	-65.0	0.2	10.0	1.0	2.0	1.4086746634892435	2.375	n/a	stim	poldrack-single-stim	s634	False	1
64.924	0.695	65.619	-1.71330930072813	draw_card	0.695	columbia_card_task_fmri	17.0	0.7777777777777778	89.0	-65.0	0.2222222222222222	10.0	2.0	2.0	2.699191692915882	0.695	n/a	stim	poldrack-single-stim	s634	False	1
65.621	3.398	69.019	-3.9910870785059114	draw_card	3.398	columbia_card_task_fmri	17.0	0.75	89.0	-65.0	0.25	10.0	3.0	2.0	4.115435981296272	3.398	n/a	stim	poldrack-single-stim	s634	False	1
69.021	2.194	71.215	-6.9196585070773375	end_round	2.194	columbia_card_task_fmri	17.0	0.7142857142857143	71.0	-65.0	0.2857142857142857	10.0	4.0	2.0	5.652077578218496	2.194	3.0	stim	poldrack-single-stim	s634	False	1
71.967	1.5	71.216	n/a	-1.0	2.25	columbia_card_task_fmri	n/a	n/a	-1.0	n/a	n/a	n/a	n/a	n/a	n/a	n/a	n/a	ITI	poldrack-single-stim	s634	False	0
73.469	2.243	75.712	-1.3244204118392424	end_round	2.243	columbia_card_task_fmri	13.0	0.8333333333333334	71.0	-70.0	0.1666666666666666	12.0	1.0	2.0	-0.4588297070066289	2.243	0.0	stim	poldrack-single-stim	s634	False	1
76.464	1.5	75.713	n/a	-1.0	2.386	columbia_card_task_fmri	n/a	n/a	-1.0	n/a	n/a	n/a	n/a	n/a	n/a	n/a	n/a	ITI	poldrack-single-stim	s634	False	0
78.102	2.018	80.12	-1.3244204118392424	end_round	2.018	columbia_card_task_fmri	15.0	0.8333333333333334	71.0	-80.0	0.1666666666666666	12.0	1.0	2.0	4.012813913053741	2.018	0.0	stim	poldrack-single-stim	s634	False	1
80.872	1.5	80.121	n/a	-1.0	2.386	columbia_card_task_fmri	n/a	n/a	-1.0	n/a	n/a	n/a	n/a	n/a	n/a	n/a	n/a	ITI	poldrack-single-stim	s634	False	0
82.51	5.37	87.88	-2.291087078505909	end_round	5.37	columbia_card_task_fmri	14.0	0.8	71.0	-65.0	0.2	15.0	1.0	3.0	0.2088142461661917	5.37	0.0	stim	poldrack-single-stim	s634	False	1
88.632	1.5	87.881	n/a	-1.0	2.726	columbia_card_task_fmri	n/a	n/a	-1.0	n/a	n/a	n/a	n/a	n/a	n/a	n/a	n/a	ITI	poldrack-single-stim	s634	False	0
90.611	1.063	91.674	-2.3660870785059105	end_round	1.063	columbia_card_task_fmri	1.0	0.9375	71.0	-45.0	0.0625	16.0	1.0	1.0	-20.2493502114103	1.063	0.0	stim	poldrack-single-stim	s634	False	1
92.426	1.5	91.675	n/a	-1.0	2.454	columbia_card_task_fmri	n/a	n/a	-1.0	n/a	n/a	n/a	n/a	n/a	n/a	n/a	n/a	ITI	poldrack-single-stim	s634	False	0
94.132	3.197	97.329	-1.4285870785059105	end_round	3.197	columbia_card_task_fmri	15.0	0.8125	71.0	-70.0	0.1875	16.0	1.0	3.0	1.7851848109172792	3.197	0.0	stim	poldrack-single-stim	s634	False	1
98.081	1.5	97.33	n/a	-1.0	2.318	columbia_card_task_fmri	n/a	n/a	-1.0	n/a	n/a	n/a	n/a	n/a	n/a	n/a	n/a	ITI	poldrack-single-stim	s634	False	0
99.651	2.399	102.05	5.5089129214940895	draw_card	2.399	columbia_card_task_fmri	30.0	0.7	89.0	-50.0	0.3	10.0	1.0	3.0	5.268893140774381	2.399	n/a	stim	poldrack-single-stim	s634	False	1
102.053	2.397	104.45	2.8422462548274288	end_round	2.397	columbia_card_task_fmri	30.0	0.6666666666666667	71.0	-50.0	0.3333333333333333	10.0	2.0	3.0	6.320557524870317	2.397	1.0	stim	poldrack-single-stim	s634	False	1
105.202	1.5	104.451	n/a	-1.0	2.318	columbia_card_task_fmri	n/a	n/a	-1.0	n/a	n/a	n/a	n/a	n/a	n/a	n/a	n/a	ITI	poldrack-single-stim	s634	False	0
106.771	2.84	109.611	4.90891292149409	draw_card	2.84	columbia_card_task_fmri	17.0	0.8666666666666667	89.0	-70.0	0.1333333333333333	15.0	1.0	2.0	-1.8166112545419464	2.84	n/a	stim	poldrack-single-stim	s634	False	1
109.613	0.997	110.61	4.080341492922663	draw_card	0.997	columbia_card_task_fmri	17.0	0.8571428571428572	89.0	-70.0	0.1428571428571428	15.0	2.0	2.0	-0.94738260900618	0.997	n/a	stim	poldrack-single-stim	s634	False	1
110.613	2.074	112.687	3.1242975368787045	draw_card	2.074	columbia_card_task_fmri	17.0	0.8461538461538461	89.0	-70.0	0.1538461538461538	15.0	3.0	2.0	-0.0014547242087346	2.074	3.0	stim	poldrack-single-stim	s634	False	0
113.44	1.5	112.689	n/a	-1.0	2.59	columbia_card_task_fmri	n/a	n/a	-1.0	n/a	n/a	n/a	n/a	n/a	n/a	n/a	n/a	ITI	poldrack-single-stim	s634	False	0
115.282	1.72	117.002	0.1339129214940897	end_round	1.72	columbia_card_task_fmri	7.0	0.9375	71.0	-95.0	0.0625	16.0	1.0	1.0	-6.699849262803216	1.72	0.0	stim	poldrack-single-stim	s634	False	1
117.754	1.5	117.003	n/a	-1.0	2.726	columbia_card_task_fmri	n/a	n/a	-1.0	n/a	n/a	n/a	n/a	n/a	n/a	n/a	n/a	ITI	poldrack-single-stim	s634	False	0
119.732	1.792	121.524	1.6964129214940895	draw_card	1.792	columbia_card_task_fmri	9.0	0.9375	89.0	-100.0	0.0625	16.0	1.0	1.0	-5.005732602590125	1.792	n/a	stim	poldrack-single-stim	s634	False	1
121.526	0.839	122.365	1.2422462548274231	draw_card	0.839	columbia_card_task_fmri	9.0	0.9333333333333332	89.0	-100.0	0.0666666666666666	16.0	2.0	1.0	-4.201189860337156	0.839	n/a	stim	poldrack-single-stim	s634	False	1
122.367	0.935	123.302	0.723198635779805	draw_card	0.935	columbia_card_task_fmri	9.0	0.9285714285714286	89.0	-100.0	0.0714285714285714	16.0	3.0	1.0	-3.3189141735111782	0.935	n/a	stim	poldrack-single-stim	s634	False	1
123.304	3.906	127.21	0.1242975368787056	draw_card	3.906	columbia_card_task_fmri	9.0	0.9230769230769232	89.0	-100.0	0.0769230769230769	16.0	4.0	1.0	-2.3456904714368214	3.906	n/a	stim	poldrack-single-stim	s634	False	1
127.212	3.153	130.365	-0.5744204118392424	draw_card	3.153	columbia_card_task_fmri	9.0	0.9166666666666666	89.0	-100.0	0.0833333333333333	16.0	5.0	1.0	-1.2649905730631836	3.153	n/a	stim	poldrack-single-stim	s634	False	1
130.368	1.377	131.745	-1.4001779875968203	end_round	1.377	columbia_card_task_fmri	9.0	0.9090909090909092	71.0	-100.0	0.0909090909090909	16.0	6.0	1.0	-0.0558567105021055	1.377	5.0	stim	poldrack-single-stim	s634	False	1
132.498	1.5	131.747	n/a	-1.0	2.522	columbia_card_task_fmri	n/a	n/a	-1.0	n/a	n/a	n/a	n/a	n/a	n/a	n/a	n/a	ITI	poldrack-single-stim	s634	False	0
134.271	2.772	137.043	2.633912921494089	end_round	2.772	columbia_card_task_fmri	15.0	0.875	71.0	-80.0	0.125	16.0	1.0	2.0	0.0271331298947714	2.772	0.0	stim	poldrack-single-stim	s634	False	1
137.796	1.5	137.045	n/a	-1.0	3.134	columbia_card_task_fmri	n/a	n/a	-1.0	n/a	n/a	n/a	n/a	n/a	n/a	n/a	n/a	ITI	poldrack-single-stim	s634	False	0
140.182	6.71	146.892	4.7589129214940895	draw_card	6.71	columbia_card_task_fmri	16.0	0.875	89.0	-70.0	0.125	16.0	1.0	2.0	-2.948935525985356	6.71	n/a	stim	poldrack-single-stim	s634	False	1
146.895	1.234	148.129	4.042246254827423	draw_card	1.234	columbia_card_task_fmri	16.0	0.8666666666666667	89.0	-70.0	0.1333333333333333	16.0	2.0	2.0	-2.1564984882674487	1.234	n/a	stim	poldrack-single-stim	s634	False	1
148.131	1.038	149.169	3.223198635779805	end_round	1.038	columbia_card_task_fmri	16.0	0.8571428571428572	71.0	-70.0	0.1428571428571428	16.0	3.0	2.0	-1.2972636676246054	1.038	2.0	stim	poldrack-single-stim	s634	False	1
149.922	1.5	149.171	n/a	-1.0	2.386	columbia_card_task_fmri	n/a	n/a	-1.0	n/a	n/a	n/a	n/a	n/a	n/a	n/a	n/a	ITI	poldrack-single-stim	s634	False	0
151.56	4.996	156.556	6.0714129214940895	end_round	4.996	columbia_card_task_fmri	30.0	0.6875	71.0	-45.0	0.3125	16.0	1.0	5.0	3.3718974670892337	4.996	0.0	stim	poldrack-single-stim	s634	False	1
157.309	1.5	156.558	n/a	-1.0	2.386	columbia_card_task_fmri	n/a	n/a	-1.0	n/a	n/a	n/a	n/a	n/a	n/a	n/a	n/a	ITI	poldrack-single-stim	s634	False	0
158.947	2.184	161.131	-2.157753745172577	end_round	2.184	columbia_card_task_fmri	13.0	0.8333333333333334	71.0	-75.0	0.1666666666666666	6.0	1.0	1.0	1.404338819497113	2.184	0.0	stim	poldrack-single-stim	s634	False	1
161.884	1.5	161.133	n/a	-1.0	2.318	columbia_card_task_fmri	n/a	n/a	-1.0	n/a	n/a	n/a	n/a	n/a	n/a	n/a	n/a	ITI	poldrack-single-stim	s634	False	0
163.453	2.128	165.581	-0.4910870785059085	end_round	2.128	columbia_card_task_fmri	14.0	0.8333333333333334	71.0	-70.0	0.1666666666666666	6.0	1.0	1.0	-0.0861981104138571	2.128	0.0	stim	poldrack-single-stim	s634	False	1
166.333	1.5	165.582	n/a	-1.0	2.318	columbia_card_task_fmri	n/a	n/a	-1.0	n/a	n/a	n/a	n/a	n/a	n/a	n/a	n/a	ITI	poldrack-single-stim	s634	False	0
167.902	3.404	171.306	-0.4910870785059085	end_round	3.404	columbia_card_task_fmri	16.0	0.8333333333333334	71.0	-80.0	0.1666666666666666	6.0	1.0	1.0	4.385456436426452	3.404	0.0	stim	poldrack-single-stim	s634	False	1
172.059	1.5	171.308	n/a	-1.0	2.862	columbia_card_task_fmri	n/a	n/a	-1.0	n/a	n/a	n/a	n/a	n/a	n/a	n/a	n/a	ITI	poldrack-single-stim	s634	False	0
174.173	4.881	179.054	2.0089129214940917	draw_card	4.881	columbia_card_task_fmri	17.0	0.8333333333333334	89.0	-70.0	0.1666666666666666	6.0	1.0	1.0	1.0317030781854797	4.881	n/a	stim	poldrack-single-stim	s634	False	1
179.056	0.978	180.034	-0.8910870785059088	end_round	0.978	columbia_card_task_fmri	17.0	0.8	71.0	-70.0	0.2	6.0	2.0	1.0	3.4084634143083363	0.978	1.0	stim	poldrack-single-stim	s634	False	1
180.786	1.5	180.035	n/a	-1.0	2.726	columbia_card_task_fmri	n/a	n/a	-1.0	n/a	n/a	n/a	n/a	n/a	n/a	n/a	n/a	ITI	poldrack-single-stim	s634	False	0
182.765	1.663	184.428	2.008912921494089	draw_card	1.663	columbia_card_task_fmri	25.0	0.75	89.0	-65.0	0.25	8.0	1.0	2.0	7.579235765964015	1.663	n/a	stim	poldrack-single-stim	s634	False	1
184.43	4.188	188.618	-1.205372792791622	end_round	4.188	columbia_card_task_fmri	25.0	0.7142857142857143	71.0	-65.0	0.2857142857142857	8.0	2.0	2.0	9.26581987788378	4.188	1.0	stim	poldrack-single-stim	s634	False	1
189.37	1.5	188.619	n/a	-1.0	2.25	columbia_card_task_fmri	n/a	n/a	-1.0	n/a	n/a	n/a	n/a	n/a	n/a	n/a	n/a	ITI	poldrack-single-stim	s634	False	0
190.873	2.122	192.995	2.008912921494089	draw_card	2.122	columbia_card_task_fmri	30.0	0.75	89.0	-80.0	0.25	8.0	1.0	2.0	16.238927283380804	2.122	n/a	stim	poldrack-single-stim	s634	False	1
192.997	4.029	197.026	-1.9196585070773335	end_round	4.029	columbia_card_task_fmri	30.0	0.7142857142857143	71.0	-80.0	0.2857142857142857	8.0	2.0	2.0	18.300359718637843	4.029	1.0	stim	poldrack-single-stim	s634	False	1
197.778	1.5	197.027	n/a	-1.0	2.318	columbia_card_task_fmri	n/a	n/a	-1.0	n/a	n/a	n/a	n/a	n/a	n/a	n/a	n/a	ITI	poldrack-single-stim	s634	False	0
199.348	2.682	202.03	1.7089129214940908	end_round	2.682	columbia_card_task_fmri	13.0	0.9	71.0	-95.0	0.1	10.0	1.0	1.0	1.0087200424183749	2.682	0.0	stim	poldrack-single-stim	s634	False	1
202.783	1.5	202.032	n/a	-1.0	2.454	columbia_card_task_fmri	n/a	n/a	-1.0	n/a	n/a	n/a	n/a	n/a	n/a	n/a	n/a	ITI	poldrack-single-stim	s634	False	0
204.49	6.291	210.781	3.108912921494089	draw_card	6.291	columbia_card_task_fmri	14.0	0.9	89.0	-90.0	0.1	10.0	1.0	1.0	-0.1911368406803291	6.291	n/a	stim	poldrack-single-stim	s634	False	1
210.783	1.7	212.483	1.9533573659385328	draw_card	1.7	columbia_card_task_fmri	14.0	0.8888888888888888	89.0	-90.0	0.1111111111111111	10.0	2.0	1.0	1.2927344786141148	1.7	n/a	stim	poldrack-single-stim	s634	False	1
212.486	0.522	213.008	0.5089129214940897	end_round	0.522	columbia_card_task_fmri	14.0	0.875	71.0	-90.0	0.125	10.0	3.0	1.0	3.0032712764124483	0.522	2.0	stim	poldrack-single-stim	s634	False	1
213.76	1.5	213.009	n/a	-1.0	2.522	columbia_card_task_fmri	n/a	n/a	-1.0	n/a	n/a	n/a	n/a	n/a	n/a	n/a	n/a	ITI	poldrack-single-stim	s634	False	0
215.534	8.826	224.36	-1.6910870785059096	end_round	8.826	columbia_card_task_fmri	16.0	0.8	71.0	-70.0	0.2	10.0	1.0	2.0	3.0085036993398973	8.826	0.0	stim	poldrack-single-stim	s634	False	1
225.113	1.5	224.362	n/a	-1.0	2.318	columbia_card_task_fmri	n/a	n/a	-1.0	n/a	n/a	n/a	n/a	n/a	n/a	n/a	n/a	ITI	poldrack-single-stim	s634	False	0
226.682	1.542	228.224	-2.407753745172577	end_round	1.542	columbia_card_task_fmri	7.0	0.9166666666666666	71.0	-100.0	0.0833333333333333	12.0	1.0	1.0	-1.817686571132839	1.542	0.0	stim	poldrack-single-stim	s634	False	1
228.977	1.5	228.226	n/a	-1.0	2.522	columbia_card_task_fmri	n/a	n/a	-1.0	n/a	n/a	n/a	n/a	n/a	n/a	n/a	n/a	ITI	poldrack-single-stim	s634	False	0
230.752	2.281	233.033	-2.157753745172575	end_round	2.281	columbia_card_task_fmri	14.0	0.8333333333333334	71.0	-80.0	0.1666666666666666	12.0	1.0	2.0	3.640172144313041	2.281	0.0	stim	poldrack-single-stim	s634	False	1
233.785	1.5	233.034	n/a	-1.0	2.998	columbia_card_task_fmri	n/a	n/a	-1.0	n/a	n/a	n/a	n/a	n/a	n/a	n/a	n/a	ITI	poldrack-single-stim	s634	False	0
236.036	2.931	238.967	-0.4910870785059102	draw_card	2.931	columbia_card_task_fmri	15.0	0.8333333333333334	89.0	-75.0	0.1666666666666666	12.0	1.0	2.0	2.1496131186548126	2.931	n/a	stim	poldrack-single-stim	s634	False	1
238.97	1.028	239.998	-1.8547234421422756	draw_card	1.028	columbia_card_task_fmri	15.0	0.8181818181818181	89.0	-75.0	0.1818181818181818	12.0	2.0	2.0	3.3209868586595803	1.028	n/a	stim	poldrack-single-stim	s634	False	1
240.001	3.197	243.198	-3.4910870785059105	end_round	3.197	columbia_card_task_fmri	15.0	0.8	71.0	-75.0	0.2	12.0	3.0	2.0	4.608347929781445	3.197	2.0	stim	poldrack-single-stim	s634	False	1
243.95	1.5	243.199	n/a	-1.0	2.318	columbia_card_task_fmri	n/a	n/a	-1.0	n/a	n/a	n/a	n/a	n/a	n/a	n/a	n/a	ITI	poldrack-single-stim	s634	False	0
245.522	2.709	248.231	-1.4910870785059105	draw_card	2.709	columbia_card_task_fmri	15.0	0.8	89.0	-65.0	0.2	15.0	1.0	3.0	0.6087665556228501	2.709	n/a	stim	poldrack-single-stim	s634	False	1
248.236	1.178	249.414	-2.633944221363053	draw_card	1.178	columbia_card_task_fmri	15.0	0.7857142857142857	89.0	-65.0	0.2142857142857142	15.0	2.0	3.0	1.434744009977294	1.178	n/a	stim	poldrack-single-stim	s634	False	1
249.416	3.317	252.733	-3.952625540044374	end_round	3.317	columbia_card_task_fmri	15.0	0.7692307692307692	71.0	-65.0	0.2307692307692307	15.0	3.0	3.0	2.314579400494466	3.317	2.0	stim	poldrack-single-stim	s634	False	1
253.486	1.5	252.735	n/a	-1.0	2.25	columbia_card_task_fmri	n/a	n/a	-1.0	n/a	n/a	n/a	n/a	n/a	n/a	n/a	n/a	ITI	poldrack-single-stim	s634	False	0
254.987	2.406	257.393	-2.2410870785059105	draw_card	2.406	columbia_card_task_fmri	14.0	0.8125	89.0	-70.0	0.1875	16.0	1.0	3.0	1.3949156977862671	2.406	n/a	stim	poldrack-single-stim	s634	False	1
257.397	2.712	260.109	-3.291087078505909	draw_card	2.712	columbia_card_task_fmri	14.0	0.8	89.0	-70.0	0.2	16.0	2.0	3.0	2.208587146453219	2.712	n/a	stim	poldrack-single-stim	s634	False	1
260.111	0.462	260.573	-4.491087078505911	end_round	0.462	columbia_card_task_fmri	14.0	0.7857142857142857	71.0	-70.0	0.2142857142857142	16.0	3.0	3.0	3.0758727274956854	0.462	2.0	stim	poldrack-single-stim	s634	False	1
261.325	1.5	260.574	n/a	-1.0	2.454	columbia_card_task_fmri	n/a	n/a	-1.0	n/a	n/a	n/a	n/a	n/a	n/a	n/a	n/a	ITI	poldrack-single-stim	s634	False	0
263.032	4.608	267.64	-2.3035870785059105	draw_card	4.608	columbia_card_task_fmri	11.0	0.6875	89.0	-30.0	0.3125	16.0	1.0	5.0	-12.384648736494835	4.608	1.0	stim	poldrack-single-stim	s634	False	0
268.393	1.5	267.642	n/a	-1.0	2.318	columbia_card_task_fmri	n/a	n/a	-1.0	n/a	n/a	n/a	n/a	n/a	n/a	n/a	n/a	ITI	poldrack-single-stim	s634	False	0
269.964	7.237	277.201	2.508912921494089	draw_card	7.237	columbia_card_task_fmri	15.0	0.8666666666666667	89.0	-75.0	0.1333333333333333	15.0	1.0	2.0	-0.7969432345508842	7.237	n/a	stim	poldrack-single-stim	s634	False	1
277.203	0.786	277.989	1.651770064351234	draw_card	0.786	columbia_card_task_fmri	15.0	0.8571428571428572	89.0	-75.0	0.1428571428571428	15.0	2.0	2.0	0.1022667053652881	0.786	n/a	stim	poldrack-single-stim	s634	False	1
277.991	1.541	279.532	0.662759075340243	draw_card	1.541	columbia_card_task_fmri	15.0	0.8461538461538461	89.0	-75.0	0.1538461538461538	15.0	3.0	2.0	1.0808208857129171	1.541	n/a	stim	poldrack-single-stim	s634	False	1
279.534	1.124	280.658	-0.4910870785059102	end_round	1.124	columbia_card_task_fmri	15.0	0.8333333333333334	71.0	-75.0	0.1666666666666666	15.0	4.0	2.0	2.1496131186548126	1.124	3.0	stim	poldrack-single-stim	s634	False	1
281.411	1.5	280.66	n/a	-1.0	2.318	columbia_card_task_fmri	n/a	n/a	-1.0	n/a	n/a	n/a	n/a	n/a	n/a	n/a	n/a	ITI	poldrack-single-stim	s634	False	0
282.982	2.064	285.046	4.242246254827424	draw_card	2.064	columbia_card_task_fmri	17.0	0.8666666666666667	89.0	-75.0	0.1333333333333333	15.0	1.0	2.0	-0.11715963220405	2.064	n/a	stim	poldrack-single-stim	s634	False	1
285.048	1.309	286.357	3.366055778636949	draw_card	1.309	columbia_card_task_fmri	17.0	0.8571428571428572	89.0	-75.0	0.1428571428571428	15.0	2.0	2.0	0.8020376968419143	1.309	2.0	stim	poldrack-single-stim	s634	False	0
287.111	1.5	286.36	n/a	-1.0	2.59	columbia_card_task_fmri	n/a	n/a	-1.0	n/a	n/a	n/a	n/a	n/a	n/a	n/a	n/a	ITI	poldrack-single-stim	s634	False	0
288.954	4.862	293.816	-0.1785870785059102	draw_card	4.862	columbia_card_task_fmri	2.0	0.9375	89.0	-25.0	0.0625	16.0	1.0	1.0	-24.84091796894232	4.862	n/a	stim	poldrack-single-stim	s634	False	1
293.819	1.016	294.835	-0.2910870785059103	draw_card	1.016	columbia_card_task_fmri	2.0	0.9333333333333332	89.0	-25.0	0.0666666666666666	16.0	2.0	1.0	-24.64213787023506	1.016	n/a	stim	poldrack-single-stim	s634	False	1
294.838	3.73	298.568	-0.4196585070773386	draw_card	3.73	columbia_card_task_fmri	2.0	0.9285714285714286	89.0	-25.0	0.0714285714285714	16.0	3.0	1.0	-24.424118626174288	3.73	n/a	stim	poldrack-single-stim	s634	False	1
298.571	0.458	299.029	-0.5680101554289871	end_round	0.458	columbia_card_task_fmri	2.0	0.9230769230769232	71.0	-25.0	0.0769230769230769	16.0	4.0	1.0	-24.18358826415752	0.458	3.0	stim	poldrack-single-stim	s634	False	1
299.783	1.5	299.032	n/a	-1.0	2.25	columbia_card_task_fmri	n/a	n/a	-1.0	n/a	n/a	n/a	n/a	n/a	n/a	n/a	n/a	ITI	poldrack-single-stim	s634	False	0
301.285	2.437	303.722	2.008912921494089	draw_card	2.437	columbia_card_task_fmri	9.0	0.9375	89.0	-95.0	0.0625	16.0	1.0	1.0	-6.215820237152734	2.437	n/a	stim	poldrack-single-stim	s634	False	1
303.726	1.2	304.926	1.575579588160757	draw_card	1.2	columbia_card_task_fmri	9.0	0.9333333333333332	89.0	-95.0	0.0666666666666666	16.0	2.0	1.0	-5.44819582568676	1.2	n/a	stim	poldrack-single-stim	s634	False	1
304.928	1.101	306.029	1.0803414929226618	draw_card	1.101	columbia_card_task_fmri	9.0	0.9285714285714286	89.0	-95.0	0.0714285714285714	16.0	3.0	1.0	-4.606404591384848	1.101	n/a	stim	poldrack-single-stim	s634	False	1
306.032	0.878	306.91	0.5089129214940897	end_round	0.878	columbia_card_task_fmri	9.0	0.9230769230769232	71.0	-95.0	0.0769230769230769	16.0	4.0	1.0	-3.6778376962444983	0.878	3.0	stim	poldrack-single-stim	s634	False	1
307.663	1.5	306.912	n/a	-1.0	2.25	columbia_card_task_fmri	n/a	n/a	-1.0	n/a	n/a	n/a	n/a	n/a	n/a	n/a	n/a	ITI	poldrack-single-stim	s634	False	0
309.165	2.823	311.988	3.571412921494089	draw_card	2.823	columbia_card_task_fmri	11.0	0.9375	89.0	-100.0	0.0625	16.0	1.0	1.0	-4.5216920091911135	2.823	n/a	stim	poldrack-single-stim	s634	False	1
311.99	0.807	312.797	3.10891292149409	draw_card	0.807	columbia_card_task_fmri	11.0	0.9333333333333332	89.0	-100.0	0.0666666666666666	16.0	2.0	1.0	-3.702382098402577	0.807	n/a	stim	poldrack-single-stim	s634	False	1
312.801	0.685	313.486	2.5803414929226625	draw_card	0.685	columbia_card_task_fmri	11.0	0.9285714285714286	89.0	-100.0	0.0714285714285714	16.0	3.0	1.0	-2.803912799390112	0.685	n/a	stim	poldrack-single-stim	s634	False	1
313.488	3.053	316.541	1.9704513830325523	draw_card	3.053	columbia_card_task_fmri	11.0	0.9230769230769232	89.0	-100.0	0.0769230769230769	16.0	4.0	1.0	-1.8128265488840007	3.053	n/a	stim	poldrack-single-stim	s634	False	1
316.545	4.661	321.206	1.2589129214940895	end_round	4.661	columbia_card_task_fmri	11.0	0.9166666666666666	71.0	-100.0	0.0833333333333333	16.0	5.0	1.0	-0.7122918800139004	4.661	4.0	stim	poldrack-single-stim	s634	False	1
321.958	1.5	321.207	n/a	-1.0	2.522	columbia_card_task_fmri	n/a	n/a	-1.0	n/a	n/a	n/a	n/a	n/a	n/a	n/a	n/a	ITI	poldrack-single-stim	s634	False	0
323.733	15.126	338.859	4.1339129214940895	end_round	15.126	columbia_card_task_fmri	16.0	0.875	71.0	-75.0	0.125	16.0	1.0	2.0	-1.2955738548545277	15.126	0.0	stim	poldrack-single-stim	s634	False	1
339.613	1.5	338.862	n/a	-1.0	2.454	columbia_card_task_fmri	n/a	n/a	-1.0	n/a	n/a	n/a	n/a	n/a	n/a	n/a	n/a	ITI	poldrack-single-stim	s634	False	0
341.321	9.908	351.229	4.3839129214940895	draw_card	9.908	columbia_card_task_fmri	17.0	0.875	89.0	-80.0	0.125	16.0	1.0	2.0	0.6884918379483338	9.908	n/a	stim	poldrack-single-stim	s634	False	1
351.232	0.682	351.914	3.5755795881607577	draw_card	0.682	columbia_card_task_fmri	17.0	0.8666666666666667	89.0	-80.0	0.1333333333333333	16.0	2.0	2.0	1.5823148262093056	0.682	n/a	stim	poldrack-single-stim	s634	False	1
351.917	0.514	352.431	2.6517700643512354	draw_card	0.514	columbia_card_task_fmri	17.0	0.8571428571428572	89.0	-80.0	0.1428571428571428	16.0	3.0	2.0	2.551480187125385	0.514	n/a	stim	poldrack-single-stim	s634	False	1
352.434	2.941	355.375	1.5858359984171664	draw_card	2.941	columbia_card_task_fmri	17.0	0.8461538461538461	89.0	-80.0	0.1538461538461538	16.0	4.0	2.0	3.6061614342211	2.941	n/a	stim	poldrack-single-stim	s634	False	1
355.378	0.453	355.831	0.3422462548274254	end_round	0.453	columbia_card_task_fmri	17.0	0.8333333333333334	71.0	-80.0	0.1666666666666666	16.0	5.0	2.0	4.758099691096426	0.453	4.0	stim	poldrack-single-stim	s634	False	1
356.584	1.5	355.833	n/a	-1.0	2.25	columbia_card_task_fmri	n/a	n/a	-1.0	n/a	n/a	n/a	n/a	n/a	n/a	n/a	n/a	ITI	poldrack-single-stim	s634	False	0
369.089	6.144	375.233	-1.3244204118392424	end_round	6.144	columbia_card_task_fmri	13.0	0.8333333333333334	71.0	-70.0	0.1666666666666666	6.0	1.0	1.0	-0.4588297070066289	6.144	0.0	stim	poldrack-single-stim	s634	False	1
375.986	1.5	375.235	n/a	-1.0	2.454	columbia_card_task_fmri	n/a	n/a	-1.0	n/a	n/a	n/a	n/a	n/a	n/a	n/a	n/a	ITI	poldrack-single-stim	s634	False	0
377.693	4.092	381.785	-1.3244204118392424	end_round	4.092	columbia_card_task_fmri	15.0	0.8333333333333334	71.0	-80.0	0.1666666666666666	6.0	1.0	1.0	4.012813913053741	4.092	0.0	stim	poldrack-single-stim	s634	False	1
382.538	1.5	381.787	n/a	-1.0	2.454	columbia_card_task_fmri	n/a	n/a	-1.0	n/a	n/a	n/a	n/a	n/a	n/a	n/a	n/a	ITI	poldrack-single-stim	s634	False	0
384.245	3.387	387.632	0.3422462548274236	draw_card	3.387	columbia_card_task_fmri	16.0	0.8333333333333334	89.0	-75.0	0.1666666666666666	6.0	1.0	1.0	2.5222516146123013	3.387	n/a	stim	poldrack-single-stim	s634	False	1
387.635	0.862	388.497	-2.69108707850591	end_round	0.862	columbia_card_task_fmri	16.0	0.8	71.0	-75.0	0.2	6.0	2.0	1.0	5.008311126784783	0.862	1.0	stim	poldrack-single-stim	s634	False	1
389.25	1.5	388.499	n/a	-1.0	2.522	columbia_card_task_fmri	n/a	n/a	-1.0	n/a	n/a	n/a	n/a	n/a	n/a	n/a	n/a	ITI	poldrack-single-stim	s634	False	0
391.025	3.459	394.484	1.5089129214940895	draw_card	3.459	columbia_card_task_fmri	21.0	0.75	89.0	-55.0	0.25	8.0	1.0	2.0	1.5176278366254865	3.459	1.0	stim	poldrack-single-stim	s634	False	0
395.237	1.5	394.486	n/a	-1.0	2.454	columbia_card_task_fmri	n/a	n/a	-1.0	n/a	n/a	n/a	n/a	n/a	n/a	n/a	n/a	ITI	poldrack-single-stim	s634	False	0
396.945	8.546	405.491	2.758912921494089	draw_card	8.546	columbia_card_task_fmri	26.0	0.75	89.0	-65.0	0.25	8.0	1.0	2.0	8.012214470016005	8.546	n/a	stim	poldrack-single-stim	s634	False	1
405.494	1.355	406.849	-0.4910870785059067	draw_card	1.355	columbia_card_task_fmri	26.0	0.7142857142857143	89.0	-65.0	0.2857142857142857	8.0	2.0	2.0	9.71754124160256	1.355	2.0	stim	poldrack-single-stim	s634	False	0
407.602	1.5	406.851	n/a	-1.0	2.658	columbia_card_task_fmri	n/a	n/a	-1.0	n/a	n/a	n/a	n/a	n/a	n/a	n/a	n/a	ITI	poldrack-single-stim	s634	False	0
409.513	9.098	418.611	-2.157753745172577	end_round	9.098	columbia_card_task_fmri	15.0	0.7777777777777778	71.0	-60.0	0.2222222222222222	9.0	1.0	2.0	-0.2106561982723178	9.098	0.0	stim	poldrack-single-stim	s634	False	1
419.365	1.5	418.614	n/a	-1.0	2.386	columbia_card_task_fmri	n/a	n/a	-1.0	n/a	n/a	n/a	n/a	n/a	n/a	n/a	n/a	ITI	poldrack-single-stim	s634	False	0
421.004	7.413	428.417	2.2089129214940906	draw_card	7.413	columbia_card_task_fmri	13.0	0.9	89.0	-90.0	0.1	10.0	1.0	1.0	-0.4910993249222244	7.413	1.0	stim	poldrack-single-stim	s634	False	0
429.172	1.5	428.421	n/a	-1.0	2.522	columbia_card_task_fmri	n/a	n/a	-1.0	n/a	n/a	n/a	n/a	n/a	n/a	n/a	n/a	ITI	poldrack-single-stim	s634	False	0
430.947	3.583	434.53	3.508912921494089	draw_card	3.583	columbia_card_task_fmri	15.0	0.9	89.0	-95.0	0.1	10.0	1.0	1.0	1.6086523864913218	3.583	n/a	stim	poldrack-single-stim	s634	False	1
434.534	0.878	435.412	2.2866906992718663	draw_card	0.878	columbia_card_task_fmri	15.0	0.8888888888888888	89.0	-95.0	0.1111111111111111	10.0	2.0	1.0	3.178151356128716	0.878	n/a	stim	poldrack-single-stim	s634	False	1
435.415	0.926	436.341	0.7589129214940897	draw_card	0.926	columbia_card_task_fmri	15.0	0.875	89.0	-95.0	0.125	10.0	3.0	1.0	4.987393558617448	0.926	n/a	stim	poldrack-single-stim	s634	False	1
436.344	0.627	436.971	-1.2053727927916238	end_round	0.627	columbia_card_task_fmri	15.0	0.8571428571428572	71.0	-95.0	0.1428571428571428	10.0	4.0	1.0	7.100112780599112	0.627	3.0	stim	poldrack-single-stim	s634	False	1
437.725	1.5	436.974	n/a	-1.0	2.59	columbia_card_task_fmri	n/a	n/a	-1.0	n/a	n/a	n/a	n/a	n/a	n/a	n/a	n/a	ITI	poldrack-single-stim	s634	False	0
439.568	8.403	447.971	-0.6910870785059096	end_round	8.403	columbia_card_task_fmri	16.0	0.8	71.0	-65.0	0.2	10.0	1.0	2.0	1.0087200424183749	8.403	0.0	stim	poldrack-single-stim	s634	False	1
448.725	1.5	447.974	n/a	-1.0	2.386	columbia_card_task_fmri	n/a	n/a	-1.0	n/a	n/a	n/a	n/a	n/a	n/a	n/a	n/a	ITI	poldrack-single-stim	s634	False	0
450.363	7.726	458.089	-1.9910870785059105	end_round	7.726	columbia_card_task_fmri	7.0	0.9166666666666666	71.0	-95.0	0.0833333333333333	12.0	1.0	1.0	-3.199413735730211	7.726	0.0	stim	poldrack-single-stim	s634	False	1
458.843	1.5	458.092	n/a	-1.0	2.59	columbia_card_task_fmri	n/a	n/a	-1.0	n/a	n/a	n/a	n/a	n/a	n/a	n/a	n/a	ITI	poldrack-single-stim	s634	False	0
460.686	6.345	467.031	-1.3244204118392424	end_round	6.345	columbia_card_task_fmri	14.0	0.8333333333333334	71.0	-75.0	0.1666666666666666	12.0	1.0	2.0	1.776975510200053	6.345	0.0	stim	poldrack-single-stim	s634	False	1
467.784	1.5	467.033	n/a	-1.0	2.318	columbia_card_task_fmri	n/a	n/a	-1.0	n/a	n/a	n/a	n/a	n/a	n/a	n/a	n/a	ITI	poldrack-single-stim	s634	False	0
469.356	7.948	477.304	0.3422462548274236	draw_card	7.948	columbia_card_task_fmri	15.0	0.8333333333333334	89.0	-70.0	0.1666666666666666	12.0	1.0	2.0	0.2864345777364576	7.948	1.0	stim	poldrack-single-stim	s634	False	0
478.058	1.5	477.307	n/a	-1.0	2.25	columbia_card_task_fmri	n/a	n/a	-1.0	n/a	n/a	n/a	n/a	n/a	n/a	n/a	n/a	ITI	poldrack-single-stim	s634	False	0
479.561	8.152	487.713	-1.6910870785059096	draw_card	8.152	columbia_card_task_fmri	16.0	0.8	89.0	-70.0	0.2	15.0	1.0	3.0	3.0085036993398973	8.152	n/a	stim	poldrack-single-stim	s634	False	1
487.717	1.117	488.834	-2.9196585070773398	draw_card	1.117	columbia_card_task_fmri	16.0	0.7857142857142857	89.0	-70.0	0.2142857142857142	15.0	2.0	3.0	3.896443186355192	1.117	n/a	stim	poldrack-single-stim	s634	False	1
488.837	4.593	493.43	-4.337240924659757	end_round	4.593	columbia_card_task_fmri	16.0	0.7692307692307692	71.0	-70.0	0.2307692307692307	15.0	3.0	3.0	4.842280109837219	4.593	2.0	stim	poldrack-single-stim	s634	False	1
494.183	1.5	493.432	n/a	-1.0	2.454	columbia_card_task_fmri	n/a	n/a	-1.0	n/a	n/a	n/a	n/a	n/a	n/a	n/a	n/a	ITI	poldrack-single-stim	s634	False	0
495.891	9.586	505.477	-1.3035870785059105	draw_card	9.586	columbia_card_task_fmri	14.0	0.8125	89.0	-65.0	0.1875	16.0	1.0	3.0	-0.5564134423381297	9.586	n/a	stim	poldrack-single-stim	s634	False	1
505.481	0.75	506.231	-2.291087078505909	draw_card	0.75	columbia_card_task_fmri	14.0	0.8	89.0	-65.0	0.2	16.0	2.0	3.0	0.2088142461661917	0.75	n/a	stim	poldrack-single-stim	s634	False	1
506.235	2.016	508.251	-3.419658507077337	end_round	2.016	columbia_card_task_fmri	14.0	0.7857142857142857	71.0	-65.0	0.2142857142857142	16.0	3.0	3.0	1.0244645974711375	2.016	2.0	stim	poldrack-single-stim	s634	False	1
509.005	1.5	508.254	n/a	-1.0	3.27	columbia_card_task_fmri	n/a	n/a	-1.0	n/a	n/a	n/a	n/a	n/a	n/a	n/a	n/a	ITI	poldrack-single-stim	s634	False	0
511.528	12.444	523.972	-1.5535870785059105	draw_card	12.444	columbia_card_task_fmri	16.0	0.8125	89.0	-75.0	0.1875	16.0	1.0	3.0	4.126819453664574	12.444	n/a	stim	poldrack-single-stim	s634	False	1
523.976	2.121	526.097	-2.69108707850591	end_round	2.121	columbia_card_task_fmri	16.0	0.8	71.0	-75.0	0.2	16.0	2.0	3.0	5.008311126784783	2.121	1.0	stim	poldrack-single-stim	s634	False	1
526.85	1.5	526.099	n/a	-1.0	2.25	columbia_card_task_fmri	n/a	n/a	-1.0	n/a	n/a	n/a	n/a	n/a	n/a	n/a	n/a	ITI	poldrack-single-stim	s634	False	0
528.353	9.891	538.244	2.7089129214940906	draw_card	9.891	columbia_card_task_fmri	16.0	0.8666666666666667	89.0	-80.0	0.1333333333333333	15.0	1.0	2.0	1.2424182788710638	9.891	1.0	stim	poldrack-single-stim	s634	False	0
538.998	1.5	538.247	n/a	-1.0	2.25	columbia_card_task_fmri	n/a	n/a	-1.0	n/a	n/a	n/a	n/a	n/a	n/a	n/a	n/a	ITI	poldrack-single-stim	s634	False	0
540.501	1.851	542.352	3.5755795881607577	draw_card	1.851	columbia_card_task_fmri	17.0	0.8666666666666667	89.0	-80.0	0.1333333333333333	15.0	1.0	2.0	1.5823148262093056	1.851	n/a	stim	poldrack-single-stim	s634	False	1
542.355	1.907	544.262	2.6517700643512354	draw_card	1.907	columbia_card_task_fmri	17.0	0.8571428571428572	89.0	-80.0	0.1428571428571428	15.0	2.0	2.0	2.551480187125385	1.907	n/a	stim	poldrack-single-stim	s634	False	1
544.266	4.508	548.774	1.5858359984171664	draw_card	4.508	columbia_card_task_fmri	17.0	0.8461538461538461	89.0	-80.0	0.1538461538461538	15.0	3.0	2.0	3.6061614342211	4.508	n/a	stim	poldrack-single-stim	s634	False	1
548.779	0.45	549.229	0.3422462548274254	end_round	0.45	columbia_card_task_fmri	17.0	0.8333333333333334	71.0	-80.0	0.1666666666666666	15.0	4.0	2.0	4.758099691096426	0.45	3.0	stim	poldrack-single-stim	s634	False	1
549.983	1.5	549.232	n/a	-1.0	2.318	columbia_card_task_fmri	n/a	n/a	-1.0	n/a	n/a	n/a	n/a	n/a	n/a	n/a	n/a	ITI	poldrack-single-stim	s634	False	0
551.556	3.816	555.372	-0.4910870785059102	draw_card	3.816	columbia_card_task_fmri	1.0	0.9375	89.0	-15.0	0.0625	16.0	1.0	1.0	-27.49100778665481	3.816	n/a	stim	poldrack-single-stim	s634	False	1
555.374	3.903	559.277	-0.5577537451725769	end_round	3.903	columbia_card_task_fmri	1.0	0.9333333333333332	71.0	-15.0	0.0666666666666666	16.0	2.0	1.0	-27.373800707377058	3.903	1.0	stim	poldrack-single-stim	s634	False	1
560.032	1.5	559.281	n/a	-1.0	2.726	columbia_card_task_fmri	n/a	n/a	-1.0	n/a	n/a	n/a	n/a	n/a	n/a	n/a	n/a	ITI	poldrack-single-stim	s634	False	0
562.011	1.96	563.971	2.633912921494089	draw_card	1.96	columbia_card_task_fmri	10.0	0.9375	89.0	-100.0	0.0625	16.0	1.0	1.0	-4.763712679999163	1.96	n/a	stim	poldrack-single-stim	s634	False	1
563.977	7.235	571.212	2.1755795881607565	draw_card	7.235	columbia_card_task_fmri	10.0	0.9333333333333332	89.0	-100.0	0.0666666666666666	16.0	2.0	1.0	-3.9517863424173534	7.235	n/a	stim	poldrack-single-stim	s634	False	1
571.215	0.755	571.97	1.651770064351234	draw_card	0.755	columbia_card_task_fmri	10.0	0.9285714285714286	89.0	-100.0	0.0714285714285714	16.0	3.0	1.0	-3.061413838096467	0.755	n/a	stim	poldrack-single-stim	s634	False	1
571.973	1.729	573.702	1.047374459955629	draw_card	1.729	columbia_card_task_fmri	10.0	0.9230769230769232	89.0	-100.0	0.0769230769230769	16.0	4.0	1.0	-2.079258850031895	1.729	n/a	stim	poldrack-single-stim	s634	False	1
573.707	3.513	577.22	0.3422462548274236	draw_card	3.513	columbia_card_task_fmri	10.0	0.9166666666666666	89.0	-100.0	0.0833333333333333	16.0	5.0	1.0	-0.9886415542259748	3.513	n/a	stim	poldrack-single-stim	s634	False	1
577.224	6.369	583.593	-0.491087078505912	end_round	6.369	columbia_card_task_fmri	10.0	0.9090909090909092	71.0	-100.0	0.0909090909090909	16.0	6.0	1.0	0.2315880998908994	6.369	5.0	stim	poldrack-single-stim	s634	False	1
584.347	1.5	583.596	n/a	-1.0	2.386	columbia_card_task_fmri	n/a	n/a	-1.0	n/a	n/a	n/a	n/a	n/a	n/a	n/a	n/a	ITI	poldrack-single-stim	s634	False	0
585.986	3.729	589.715	3.258912921494089	draw_card	3.729	columbia_card_task_fmri	15.0	0.875	89.0	-75.0	0.125	16.0	1.0	2.0	-1.6262482588601124	3.729	n/a	stim	poldrack-single-stim	s634	False	1
589.719	13.077	602.796	2.508912921494089	draw_card	13.077	columbia_card_task_fmri	15.0	0.8666666666666667	89.0	-75.0	0.1333333333333333	16.0	2.0	2.0	-0.7969432345508842	13.077	n/a	stim	poldrack-single-stim	s634	False	1
602.8	4.55	607.35	1.651770064351234	draw_card	4.55	columbia_card_task_fmri	15.0	0.8571428571428572	89.0	-75.0	0.1428571428571428	16.0	3.0	2.0	0.1022667053652881	4.55	n/a	stim	poldrack-single-stim	s634	False	1
607.354	1.797	609.151	0.662759075340243	draw_card	1.797	columbia_card_task_fmri	15.0	0.8461538461538461	89.0	-75.0	0.1538461538461538	16.0	4.0	2.0	1.0808208857129171	1.797	n/a	stim	poldrack-single-stim	s634	False	1
609.155	2.8	611.955	-0.4910870785059102	draw_card	2.8	columbia_card_task_fmri	15.0	0.8333333333333334	89.0	-75.0	0.1666666666666666	16.0	5.0	2.0	2.1496131186548126	2.8	5.0	stim	poldrack-single-stim	s634	False	0
612.709	1.5	611.958	n/a	-1.0	2.318	columbia_card_task_fmri	n/a	n/a	-1.0	n/a	n/a	n/a	n/a	n/a	n/a	n/a	n/a	ITI	poldrack-single-stim	s634	False	0
614.28	10.064	624.344	3.508912921494089	draw_card	10.064	columbia_card_task_fmri	16.0	0.875	89.0	-80.0	0.125	16.0	1.0	2.0	0.3578120719136493	10.064	n/a	stim	poldrack-single-stim	s634	False	1
624.349	7.138	631.487	2.7089129214940906	draw_card	7.138	columbia_card_task_fmri	16.0	0.8666666666666667	89.0	-80.0	0.1333333333333333	16.0	2.0	2.0	1.2424182788710638	7.138	n/a	stim	poldrack-single-stim	s634	False	1
631.491	2.603	634.094	1.794627207208378	draw_card	2.603	columbia_card_task_fmri	16.0	0.8571428571428572	89.0	-80.0	0.1428571428571428	16.0	3.0	2.0	2.20159008066036	2.603	n/a	stim	poldrack-single-stim	s634	False	1
634.098	1.381	635.479	0.7396821522633197	draw_card	1.381	columbia_card_task_fmri	16.0	0.8461538461538461	89.0	-80.0	0.1538461538461538	16.0	4.0	2.0	3.2453961067877515	1.381	4.0	stim	poldrack-single-stim	s634	False	0
636.233	1.5	635.482	n/a	-1.0	2.25	columbia_card_task_fmri	n/a	n/a	-1.0	n/a	n/a	n/a	n/a	n/a	n/a	n/a	n/a	ITI	poldrack-single-stim	s634	False	0
637.736	4.564	642.3	0.6964129214940897	draw_card	4.564	columbia_card_task_fmri	4.0	0.6875	89.0	-5.0	0.3125	16.0	1.0	5.0	-27.19458358104921	4.564	n/a	stim	poldrack-single-stim	s634	False	1
642.304	0.91	643.214	0.5089129214940902	draw_card	0.91	columbia_card_task_fmri	4.0	0.6666666666666667	89.0	-5.0	0.3333333333333333	16.0	2.0	5.0	-27.124033582655738	0.91	n/a	stim	poldrack-single-stim	s634	False	1
643.217	1.476	644.693	0.2946272072083751	draw_card	1.476	columbia_card_task_fmri	4.0	0.6428571428571428	89.0	-5.0	0.3571428571428571	16.0	3.0	5.0	-27.054712830624325	1.476	n/a	stim	poldrack-single-stim	s634	False	1
644.696	2.213	646.909	0.0473744599556282	end_round	2.213	columbia_card_task_fmri	4.0	0.6153846153846154	71.0	-5.0	0.3846153846153846	16.0	4.0	5.0	-26.98900960284594	2.213	3.0	stim	poldrack-single-stim	s634	False	1
647.664	1.5	646.913	n/a	-1.0	2.25	columbia_card_task_fmri	n/a	n/a	-1.0	n/a	n/a	n/a	n/a	n/a	n/a	n/a	n/a	ITI	poldrack-single-stim	s634	False	0
649.166	5.828	654.994	-2.157753745172575	end_round	5.828	columbia_card_task_fmri	14.0	0.8333333333333334	71.0	-80.0	0.1666666666666666	6.0	1.0	1.0	3.640172144313041	5.828	0.0	stim	poldrack-single-stim	s634	False	1
655.748	1.5	654.997	n/a	-1.0	2.454	columbia_card_task_fmri	n/a	n/a	-1.0	n/a	n/a	n/a	n/a	n/a	n/a	n/a	n/a	ITI	poldrack-single-stim	s634	False	0
657.456	3.155	660.611	-0.4910870785059102	end_round	3.155	columbia_card_task_fmri	15.0	0.8333333333333334	71.0	-75.0	0.1666666666666666	6.0	1.0	1.0	2.1496131186548126	3.155	0.0	stim	poldrack-single-stim	s634	False	1
661.364	1.5	660.613	n/a	-1.0	2.454	columbia_card_task_fmri	n/a	n/a	-1.0	n/a	n/a	n/a	n/a	n/a	n/a	n/a	n/a	ITI	poldrack-single-stim	s634	False	0
663.072	3.341	666.413	1.1755795881607576	draw_card	3.341	columbia_card_task_fmri	16.0	0.8333333333333334	89.0	-70.0	0.1666666666666666	6.0	1.0	1.0	0.6590683193758125	3.341	n/a	stim	poldrack-single-stim	s634	False	1
666.419	1.01	667.429	-1.6910870785059096	end_round	1.01	columbia_card_task_fmri	16.0	0.8	71.0	-70.0	0.2	6.0	2.0	1.0	3.0085036993398973	1.01	1.0	stim	poldrack-single-stim	s634	False	1
668.182	1.5	667.431	n/a	-1.0	2.522	columbia_card_task_fmri	n/a	n/a	-1.0	n/a	n/a	n/a	n/a	n/a	n/a	n/a	n/a	ITI	poldrack-single-stim	s634	False	0
669.957	5.413	675.37	1.7589129214940895	draw_card	5.413	columbia_card_task_fmri	23.0	0.75	89.0	-60.0	0.25	8.0	1.0	2.0	4.548407772867769	5.413	n/a	stim	poldrack-single-stim	s634	False	1
675.373	6.964	682.337	-1.205372792791622	draw_card	6.964	columbia_card_task_fmri	23.0	0.7142857142857143	89.0	-60.0	0.2857142857142857	8.0	2.0	2.0	6.10379231608497	6.964	n/a	stim	poldrack-single-stim	s634	False	1
682.34	1.043	683.383	-5.157753745172575	end_round	1.043	columbia_card_task_fmri	23.0	0.6666666666666667	71.0	-60.0	0.3333333333333333	8.0	3.0	2.0	7.734655531058664	1.043	2.0	stim	poldrack-single-stim	s634	False	1
684.137	1.5	683.386	n/a	-1.0	2.386	columbia_card_task_fmri	n/a	n/a	-1.0	n/a	n/a	n/a	n/a	n/a	n/a	n/a	n/a	ITI	poldrack-single-stim	s634	False	0
