onset	duration	movement_onset	EV	action	block_duration	experiment_exp_id	gain_amount	gain_probability	key_press	loss_amount	loss_probability	num_cards	num_click_in_round	num_loss_cards	risk	response_time	total_cards	trial_id	trial_type	worker_id	junk	feedback
3.005	2.839	5.844	-1.257421168860901	draw_card	2.839	columbia_card_task_fmri	12.0	0.8333333333333334	89.0	-70.0	0.1666666666666666	6.0	1.0	1.0	-1.6009949101392813	2.839	n/a	stim	poldrack-single-stim	s635	False	1
5.846	1.585	7.431	-3.990754502194233	draw_card	1.585	columbia_card_task_fmri	12.0	0.8	89.0	-70.0	0.2	6.0	2.0	1.0	0.6392222480384859	1.585	n/a	stim	poldrack-single-stim	s635	False	1
7.432	2.284	9.716	-8.090754502194235	end_round	2.284	columbia_card_task_fmri	12.0	0.75	71.0	-70.0	0.25	6.0	3.0	1.0	3.346069178714096	2.284	2.0	stim	poldrack-single-stim	s635	False	1
10.468	1.5	9.717	n/a	-1.0	2.454	columbia_card_task_fmri	n/a	n/a	-1.0	n/a	n/a	n/a	n/a	n/a	n/a	n/a	n/a	ITI	poldrack-single-stim	s635	False	0
12.174	2.784	14.958	-0.4240878355275669	draw_card	2.784	columbia_card_task_fmri	14.0	0.8333333333333334	89.0	-75.0	0.1666666666666666	6.0	1.0	1.0	1.007535565077454	2.784	n/a	stim	poldrack-single-stim	s635	False	1
14.96	0.817	15.777	-3.3907545021942336	end_round	0.817	columbia_card_task_fmri	14.0	0.8	71.0	-75.0	0.2	6.0	2.0	1.0	3.4390214658449167	0.817	1.0	stim	poldrack-single-stim	s635	False	1
16.529	1.5	15.778	n/a	-1.0	2.454	columbia_card_task_fmri	n/a	n/a	-1.0	n/a	n/a	n/a	n/a	n/a	n/a	n/a	n/a	ITI	poldrack-single-stim	s635	False	0
18.236	2.225	20.461	1.242578831139099	draw_card	2.225	columbia_card_task_fmri	15.0	0.8333333333333334	89.0	-70.0	0.1666666666666666	6.0	1.0	1.0	-0.4830576235499961	2.225	n/a	stim	poldrack-single-stim	s635	False	1
20.463	0.516	20.979	-1.5907545021942349	draw_card	0.516	columbia_card_task_fmri	15.0	0.8	89.0	-70.0	0.2	6.0	2.0	1.0	1.8391321495769049	0.516	n/a	stim	poldrack-single-stim	s635	False	1
20.98	1.927	22.907	-5.840754502194235	end_round	1.927	columbia_card_task_fmri	15.0	0.75	71.0	-70.0	0.25	6.0	3.0	1.0	4.645024053621704	1.927	2.0	stim	poldrack-single-stim	s635	False	1
23.659	1.5	22.908	n/a	-1.0	2.522	columbia_card_task_fmri	n/a	n/a	-1.0	n/a	n/a	n/a	n/a	n/a	n/a	n/a	n/a	ITI	poldrack-single-stim	s635	False	0
25.432	2.32	27.752	2.075912164472433	draw_card	2.32	columbia_card_task_fmri	17.0	0.8333333333333334	89.0	-75.0	0.1666666666666666	6.0	1.0	1.0	2.125487234936564	2.32	n/a	stim	poldrack-single-stim	s635	False	1
27.753	0.675	28.428	-0.9907545021942334	draw_card	0.675	columbia_card_task_fmri	17.0	0.8	89.0	-75.0	0.2	6.0	2.0	1.0	4.638944768628704	0.675	n/a	stim	poldrack-single-stim	s635	False	1
28.429	0.98	29.409	-5.590754502194235	draw_card	0.98	columbia_card_task_fmri	17.0	0.75	89.0	-75.0	0.25	6.0	3.0	1.0	7.675939869208072	0.98	n/a	stim	poldrack-single-stim	s635	False	1
29.41	1.007	30.417	-13.2574211688609	end_round	1.007	columbia_card_task_fmri	17.0	0.6666666666666667	71.0	-75.0	0.3333333333333333	6.0	4.0	1.0	11.207816024100993	1.007	3.0	stim	poldrack-single-stim	s635	False	1
31.169	1.5	30.418	n/a	-1.0	2.386	columbia_card_task_fmri	n/a	n/a	-1.0	n/a	n/a	n/a	n/a	n/a	n/a	n/a	n/a	ITI	poldrack-single-stim	s635	False	0
32.807	2.692	35.499	3.4092454978057654	draw_card	2.692	columbia_card_task_fmri	24.0	0.75	89.0	-60.0	0.25	8.0	1.0	2.0	4.212038434820478	2.692	1.0	stim	poldrack-single-stim	s635	False	0
36.25	1.5	35.499	n/a	-1.0	2.454	columbia_card_task_fmri	n/a	n/a	-1.0	n/a	n/a	n/a	n/a	n/a	n/a	n/a	n/a	ITI	poldrack-single-stim	s635	False	0
37.957	2.146	40.103	3.4092454978057654	draw_card	2.146	columbia_card_task_fmri	29.0	0.75	89.0	-75.0	0.25	8.0	1.0	2.0	12.871849761221007	2.146	n/a	stim	poldrack-single-stim	s635	False	1
40.104	0.76	40.864	-0.3050402164799465	draw_card	0.76	columbia_card_task_fmri	29.0	0.7142857142857143	89.0	-75.0	0.2857142857142857	8.0	2.0	2.0	14.8208625763912	0.76	n/a	stim	poldrack-single-stim	s635	False	1
40.866	1.658	42.524	-5.257421168860899	end_round	1.658	columbia_card_task_fmri	29.0	0.6666666666666667	71.0	-75.0	0.3333333333333333	8.0	3.0	2.0	16.86444749247663	1.658	2.0	stim	poldrack-single-stim	s635	False	1
43.276	1.5	42.525	n/a	-1.0	2.522	columbia_card_task_fmri	n/a	n/a	-1.0	n/a	n/a	n/a	n/a	n/a	n/a	n/a	n/a	ITI	poldrack-single-stim	s635	False	0
45.049	3.166	48.215	-0.8129767244164545	draw_card	3.166	columbia_card_task_fmri	17.0	0.7777777777777778	89.0	-65.0	0.2222222222222222	9.0	1.0	2.0	1.929781791199595	3.166	n/a	stim	poldrack-single-stim	s635	False	1
48.216	3.792	52.008	-3.090754502194234	draw_card	3.792	columbia_card_task_fmri	17.0	0.75	89.0	-65.0	0.25	9.0	2.0	2.0	3.346069178714089	3.792	n/a	stim	poldrack-single-stim	s635	False	1
52.009	1.453	53.462	-6.019325930765662	end_round	1.453	columbia_card_task_fmri	17.0	0.7142857142857143	71.0	-65.0	0.2857142857142857	9.0	3.0	2.0	4.882753811232519	1.453	2.0	stim	poldrack-single-stim	s635	False	1
54.214	1.5	53.463	n/a	-1.0	2.522	columbia_card_task_fmri	n/a	n/a	-1.0	n/a	n/a	n/a	n/a	n/a	n/a	n/a	n/a	ITI	poldrack-single-stim	s635	False	0
55.988	2.873	58.861	3.509245497805765	draw_card	2.873	columbia_card_task_fmri	14.0	0.9	89.0	-95.0	0.1	10.0	1.0	1.0	0.5392300547003828	2.873	n/a	stim	poldrack-single-stim	s635	False	1
58.863	0.657	59.52	2.298134386694653	end_round	0.657	columbia_card_task_fmri	14.0	0.8888888888888888	71.0	-95.0	0.1111111111111111	10.0	2.0	1.0	2.09450896608174	0.657	1.0	stim	poldrack-single-stim	s635	False	1
60.272	1.5	59.521	n/a	-1.0	2.59	columbia_card_task_fmri	n/a	n/a	-1.0	n/a	n/a	n/a	n/a	n/a	n/a	n/a	n/a	ITI	poldrack-single-stim	s635	False	0
62.113	2.29	64.403	-0.5907545021942349	draw_card	2.29	columbia_card_task_fmri	15.0	0.8	89.0	-65.0	0.2	10.0	1.0	2.0	-0.1607139326655513	2.29	n/a	stim	poldrack-single-stim	s635	False	1
64.405	1.228	65.633	-2.3685322799720114	draw_card	1.228	columbia_card_task_fmri	15.0	0.7777777777777778	89.0	-65.0	0.2222222222222222	10.0	2.0	2.0	1.0983637755898883	1.228	n/a	stim	poldrack-single-stim	s635	False	1
65.635	1.116	66.751	-4.590754502194235	draw_card	1.116	columbia_card_task_fmri	15.0	0.75	89.0	-65.0	0.25	10.0	3.0	2.0	2.480102729704832	1.116	n/a	stim	poldrack-single-stim	s635	False	1
66.753	0.856	67.609	-7.447897359337089	end_round	0.856	columbia_card_task_fmri	15.0	0.7142857142857143	71.0	-65.0	0.2857142857142857	10.0	4.0	2.0	3.979302417801605	0.856	3.0	stim	poldrack-single-stim	s635	False	1
68.361	1.5	67.61	n/a	-1.0	2.454	columbia_card_task_fmri	n/a	n/a	-1.0	n/a	n/a	n/a	n/a	n/a	n/a	n/a	n/a	ITI	poldrack-single-stim	s635	False	0
70.067	1.726	71.793	1.0092454978057666	draw_card	1.726	columbia_card_task_fmri	17.0	0.8	89.0	-65.0	0.2	10.0	1.0	2.0	0.6392222480384859	1.726	n/a	stim	poldrack-single-stim	s635	False	1
71.795	0.78	72.575	-0.8129767244164545	draw_card	0.78	columbia_card_task_fmri	17.0	0.7777777777777778	89.0	-65.0	0.2222222222222222	10.0	2.0	2.0	1.929781791199595	0.78	n/a	stim	poldrack-single-stim	s635	False	1
72.577	2.147	74.724	-3.090754502194234	end_round	2.147	columbia_card_task_fmri	17.0	0.75	71.0	-65.0	0.25	10.0	3.0	2.0	3.346069178714089	2.147	2.0	stim	poldrack-single-stim	s635	False	1
75.476	1.5	74.725	n/a	-1.0	2.318	columbia_card_task_fmri	n/a	n/a	-1.0	n/a	n/a	n/a	n/a	n/a	n/a	n/a	n/a	ITI	poldrack-single-stim	s635	False	0
77.046	2.485	79.531	-0.4240878355275669	draw_card	2.485	columbia_card_task_fmri	13.0	0.8333333333333334	89.0	-70.0	0.1666666666666666	12.0	1.0	2.0	-1.2283499245654674	2.485	n/a	stim	poldrack-single-stim	s635	False	1
79.533	0.726	80.259	-1.6816635931033284	draw_card	0.726	columbia_card_task_fmri	13.0	0.8181818181818181	89.0	-70.0	0.1818181818181818	12.0	2.0	2.0	-0.1480625094711527	0.726	n/a	stim	poldrack-single-stim	s635	False	1
80.26	1.465	81.725	-3.1907545021942343	draw_card	1.465	columbia_card_task_fmri	13.0	0.8	89.0	-70.0	0.2	12.0	3.0	2.0	1.039191491617686	1.465	n/a	stim	poldrack-single-stim	s635	False	1
81.726	1.702	83.428	-5.03519894663868	end_round	1.702	columbia_card_task_fmri	13.0	0.7777777777777778	71.0	-70.0	0.2222222222222222	12.0	4.0	2.0	2.345491908590404	1.702	3.0	stim	poldrack-single-stim	s635	False	1
84.18	1.5	83.429	n/a	-1.0	2.25	columbia_card_task_fmri	n/a	n/a	-1.0	n/a	n/a	n/a	n/a	n/a	n/a	n/a	n/a	ITI	poldrack-single-stim	s635	False	0
85.682	2.3	87.982	-0.4240878355275669	draw_card	2.3	columbia_card_task_fmri	15.0	0.8333333333333334	89.0	-80.0	0.1666666666666666	12.0	1.0	2.0	3.243444103345212	2.3	n/a	stim	poldrack-single-stim	s635	False	1
87.985	1.525	89.51	-1.86348177492151	end_round	1.525	columbia_card_task_fmri	15.0	0.8181818181818181	71.0	-80.0	0.1818181818181818	12.0	2.0	2.0	4.479942395473422	1.525	1.0	stim	poldrack-single-stim	s635	False	1
90.262	1.5	89.511	n/a	-1.0	2.658	columbia_card_task_fmri	n/a	n/a	-1.0	n/a	n/a	n/a	n/a	n/a	n/a	n/a	n/a	ITI	poldrack-single-stim	s635	False	0
92.172	3.125	95.297	-1.3907545021942338	draw_card	3.125	columbia_card_task_fmri	14.0	0.8	89.0	-65.0	0.2	15.0	1.0	3.0	-0.5606808114087052	3.125	n/a	stim	poldrack-single-stim	s635	False	1
95.299	1.21	96.509	-2.5193259307656617	draw_card	1.21	columbia_card_task_fmri	14.0	0.7857142857142857	89.0	-65.0	0.2142857142857142	15.0	2.0	3.0	0.2549988710439876	1.21	n/a	stim	poldrack-single-stim	s635	False	1
96.511	1.671	98.182	-3.8215237329634655	draw_card	1.671	columbia_card_task_fmri	14.0	0.7692307692307692	89.0	-65.0	0.2307692307692307	15.0	3.0	3.0	1.1238635699439712	1.671	n/a	stim	poldrack-single-stim	s635	False	1
98.184	0.909	99.093	-5.340754502194235	end_round	0.909	columbia_card_task_fmri	14.0	0.75	71.0	-65.0	0.25	15.0	4.0	3.0	2.0471206244764915	0.909	3.0	stim	poldrack-single-stim	s635	False	1
99.846	1.5	99.095	n/a	-1.0	2.454	columbia_card_task_fmri	n/a	n/a	-1.0	n/a	n/a	n/a	n/a	n/a	n/a	n/a	n/a	ITI	poldrack-single-stim	s635	False	0
101.552	3.507	105.059	-1.4657545021942349	end_round	3.507	columbia_card_task_fmri	1.0	0.9375	71.0	-45.0	0.0625	16.0	1.0	1.0	-21.020985515579447	3.507	0.0	stim	poldrack-single-stim	s635	False	1
105.812	1.5	105.061	n/a	-1.0	2.386	columbia_card_task_fmri	n/a	n/a	-1.0	n/a	n/a	n/a	n/a	n/a	n/a	n/a	n/a	ITI	poldrack-single-stim	s635	False	0
107.449	2.603	110.052	-0.5282545021942349	draw_card	2.603	columbia_card_task_fmri	15.0	0.8125	89.0	-70.0	0.1875	16.0	1.0	3.0	1.0157451405997833	2.603	n/a	stim	poldrack-single-stim	s635	False	1
110.055	0.788	110.843	-1.5907545021942349	draw_card	0.788	columbia_card_task_fmri	15.0	0.8	89.0	-70.0	0.2	16.0	2.0	3.0	1.8391321495769049	0.788	n/a	stim	poldrack-single-stim	s635	False	1
110.844	0.605	111.449	-2.80504021647995	end_round	0.605	columbia_card_task_fmri	15.0	0.7857142857142857	71.0	-70.0	0.2142857142857142	16.0	3.0	3.0	2.7167719577738154	0.605	2.0	stim	poldrack-single-stim	s635	False	1
112.202	1.5	111.451	n/a	-1.0	2.59	columbia_card_task_fmri	n/a	n/a	-1.0	n/a	n/a	n/a	n/a	n/a	n/a	n/a	n/a	ITI	poldrack-single-stim	s635	False	0
114.045	3.172	117.217	6.409245497805765	end_round	3.172	columbia_card_task_fmri	30.0	0.7	71.0	-50.0	0.3	10.0	1.0	3.0	4.499558979854683	3.172	0.0	stim	poldrack-single-stim	s635	False	1
117.969	1.5	117.218	n/a	-1.0	2.318	columbia_card_task_fmri	n/a	n/a	-1.0	n/a	n/a	n/a	n/a	n/a	n/a	n/a	n/a	ITI	poldrack-single-stim	s635	False	0
119.539	1.983	121.522	5.809245497805765	draw_card	1.983	columbia_card_task_fmri	17.0	0.8666666666666667	89.0	-70.0	0.1333333333333333	15.0	1.0	2.0	-2.586186143730924	1.983	n/a	stim	poldrack-single-stim	s635	False	1
121.524	0.649	122.173	4.980674069234338	draw_card	0.649	columbia_card_task_fmri	17.0	0.8571428571428572	89.0	-70.0	0.1428571428571428	15.0	2.0	2.0	-1.716921936717558	0.649	n/a	stim	poldrack-single-stim	s635	False	1
122.175	1.031	123.206	4.02463011319038	draw_card	1.031	columbia_card_task_fmri	17.0	0.8461538461538461	89.0	-70.0	0.1538461538461538	15.0	3.0	2.0	-0.7709575902627499	1.031	3.0	stim	poldrack-single-stim	s635	False	0
123.958	1.5	123.207	n/a	-1.0	2.59	columbia_card_task_fmri	n/a	n/a	-1.0	n/a	n/a	n/a	n/a	n/a	n/a	n/a	n/a	ITI	poldrack-single-stim	s635	False	0
125.801	2.241	128.042	1.0342454978057651	end_round	2.241	columbia_card_task_fmri	7.0	0.9375	71.0	-95.0	0.0625	16.0	1.0	1.0	-7.469670473222884	2.241	0.0	stim	poldrack-single-stim	s635	False	1
128.795	1.5	128.044	n/a	-1.0	2.386	columbia_card_task_fmri	n/a	n/a	-1.0	n/a	n/a	n/a	n/a	n/a	n/a	n/a	n/a	ITI	poldrack-single-stim	s635	False	0
130.432	2.292	132.724	2.5967454978057654	end_round	2.292	columbia_card_task_fmri	9.0	0.9375	71.0	-100.0	0.0625	16.0	1.0	1.0	-5.775458030081381	2.292	0.0	stim	poldrack-single-stim	s635	False	1
133.477	1.5	132.726	n/a	-1.0	2.318	columbia_card_task_fmri	n/a	n/a	-1.0	n/a	n/a	n/a	n/a	n/a	n/a	n/a	n/a	ITI	poldrack-single-stim	s635	False	0
135.047	2.626	137.673	3.5342454978057654	draw_card	2.626	columbia_card_task_fmri	15.0	0.875	89.0	-80.0	0.125	16.0	1.0	2.0	-0.7423686683914958	2.626	n/a	stim	poldrack-single-stim	s635	False	1
137.675	0.474	138.149	2.7425788311390997	end_round	0.474	columbia_card_task_fmri	15.0	0.8666666666666667	71.0	-80.0	0.1333333333333333	16.0	2.0	2.0	0.1330525158979512	0.474	1.0	stim	poldrack-single-stim	s635	False	1
138.902	1.5	138.151	n/a	-1.0	2.318	columbia_card_task_fmri	n/a	n/a	-1.0	n/a	n/a	n/a	n/a	n/a	n/a	n/a	n/a	ITI	poldrack-single-stim	s635	False	0
140.472	2.151	142.623	5.659245497805765	draw_card	2.151	columbia_card_task_fmri	16.0	0.875	89.0	-70.0	0.125	16.0	1.0	2.0	-3.7185600000911023	2.151	n/a	stim	poldrack-single-stim	s635	False	1
142.624	0.541	143.165	4.942578831139098	end_round	0.541	columbia_card_task_fmri	16.0	0.8666666666666667	71.0	-70.0	0.1333333333333333	16.0	2.0	2.0	-2.926087857835057	0.541	1.0	stim	poldrack-single-stim	s635	False	1
143.918	1.5	143.167	n/a	-1.0	2.318	columbia_card_task_fmri	n/a	n/a	-1.0	n/a	n/a	n/a	n/a	n/a	n/a	n/a	n/a	ITI	poldrack-single-stim	s635	False	0
145.489	2.649	148.138	6.971745497805765	draw_card	2.649	columbia_card_task_fmri	30.0	0.6875	89.0	-45.0	0.3125	16.0	1.0	5.0	2.60250847498677	2.649	n/a	stim	poldrack-single-stim	s635	False	1
148.141	0.59	148.731	5.4092454978057685	end_round	0.59	columbia_card_task_fmri	30.0	0.6666666666666667	71.0	-45.0	0.3333333333333333	16.0	2.0	5.0	3.194376801413661	0.59	1.0	stim	poldrack-single-stim	s635	False	1
149.483	1.5	148.732	n/a	-1.0	2.386	columbia_card_task_fmri	n/a	n/a	-1.0	n/a	n/a	n/a	n/a	n/a	n/a	n/a	n/a	ITI	poldrack-single-stim	s635	False	0
151.121	3.389	154.51	-1.257421168860901	end_round	3.389	columbia_card_task_fmri	13.0	0.8333333333333334	71.0	-75.0	0.1666666666666666	6.0	1.0	1.0	0.6348862555706845	3.389	0.0	stim	poldrack-single-stim	s635	False	1
155.262	1.5	154.511	n/a	-1.0	2.25	columbia_card_task_fmri	n/a	n/a	-1.0	n/a	n/a	n/a	n/a	n/a	n/a	n/a	n/a	ITI	poldrack-single-stim	s635	False	0
156.765	2.151	158.916	0.4092454978057669	end_round	2.151	columbia_card_task_fmri	14.0	0.8333333333333334	71.0	-70.0	0.1666666666666666	6.0	1.0	1.0	-0.8557041531251173	2.151	0.0	stim	poldrack-single-stim	s635	False	1
159.668	1.5	158.917	n/a	-1.0	2.386	columbia_card_task_fmri	n/a	n/a	-1.0	n/a	n/a	n/a	n/a	n/a	n/a	n/a	n/a	ITI	poldrack-single-stim	s635	False	0
161.307	1.986	163.293	0.4092454978057669	end_round	1.986	columbia_card_task_fmri	16.0	0.8333333333333334	71.0	-80.0	0.1666666666666666	6.0	1.0	1.0	3.616097463823621	1.986	0.0	stim	poldrack-single-stim	s635	False	1
164.045	1.5	163.294	n/a	-1.0	2.59	columbia_card_task_fmri	n/a	n/a	-1.0	n/a	n/a	n/a	n/a	n/a	n/a	n/a	n/a	ITI	poldrack-single-stim	s635	False	0
165.887	2.72	168.607	2.909245497805767	end_round	2.72	columbia_card_task_fmri	17.0	0.8333333333333334	71.0	-70.0	0.1666666666666666	6.0	1.0	1.0	0.2622376054513822	2.72	0.0	stim	poldrack-single-stim	s635	False	1
169.36	1.5	168.609	n/a	-1.0	2.658	columbia_card_task_fmri	n/a	n/a	-1.0	n/a	n/a	n/a	n/a	n/a	n/a	n/a	n/a	ITI	poldrack-single-stim	s635	False	0
171.27	4.217	175.487	2.9092454978057654	draw_card	4.217	columbia_card_task_fmri	25.0	0.75	89.0	-65.0	0.25	8.0	1.0	2.0	6.809961174545819	4.217	n/a	stim	poldrack-single-stim	s635	False	1
175.49	0.904	176.394	-0.3050402164799465	end_round	0.904	columbia_card_task_fmri	25.0	0.7142857142857143	71.0	-65.0	0.2857142857142857	8.0	2.0	2.0	8.496584498228266	0.904	1.0	stim	poldrack-single-stim	s635	False	1
177.147	1.5	176.396	n/a	-1.0	2.386	columbia_card_task_fmri	n/a	n/a	-1.0	n/a	n/a	n/a	n/a	n/a	n/a	n/a	n/a	ITI	poldrack-single-stim	s635	False	0
178.785	1.787	180.572	2.9092454978057654	draw_card	1.787	columbia_card_task_fmri	30.0	0.75	89.0	-80.0	0.25	8.0	1.0	2.0	15.469824549456526	1.787	n/a	stim	poldrack-single-stim	s635	False	1
180.574	0.438	181.012	-1.0193259307656584	end_round	0.438	columbia_card_task_fmri	30.0	0.7142857142857143	71.0	-80.0	0.2857142857142857	8.0	2.0	2.0	17.531289069117385	0.438	1.0	stim	poldrack-single-stim	s635	False	1
181.765	1.5	181.014	n/a	-1.0	2.386	columbia_card_task_fmri	n/a	n/a	-1.0	n/a	n/a	n/a	n/a	n/a	n/a	n/a	n/a	ITI	poldrack-single-stim	s635	False	0
183.403	1.97	185.373	2.6092454978057664	end_round	1.97	columbia_card_task_fmri	13.0	0.9	71.0	-95.0	0.1	10.0	1.0	1.0	0.2392537637873388	1.97	0.0	stim	poldrack-single-stim	s635	False	1
186.126	1.5	185.375	n/a	-1.0	2.25	columbia_card_task_fmri	n/a	n/a	-1.0	n/a	n/a	n/a	n/a	n/a	n/a	n/a	n/a	ITI	poldrack-single-stim	s635	False	0
187.629	1.862	189.491	4.009245497805765	draw_card	1.862	columbia_card_task_fmri	14.0	0.9	89.0	-90.0	0.1	10.0	1.0	1.0	-0.9606468409970574	1.862	n/a	stim	poldrack-single-stim	s635	False	1
189.494	1.78	191.274	2.853689942250208	end_round	1.78	columbia_card_task_fmri	14.0	0.8888888888888888	71.0	-90.0	0.1111111111111111	10.0	2.0	1.0	0.5232780793774339	1.78	1.0	stim	poldrack-single-stim	s635	False	1
192.027	1.5	191.276	n/a	-1.0	2.318	columbia_card_task_fmri	n/a	n/a	-1.0	n/a	n/a	n/a	n/a	n/a	n/a	n/a	n/a	ITI	poldrack-single-stim	s635	False	0
193.597	1.761	195.358	-0.7907545021942342	draw_card	1.761	columbia_card_task_fmri	16.0	0.8	89.0	-70.0	0.2	10.0	1.0	2.0	2.239103513480501	1.761	n/a	stim	poldrack-single-stim	s635	False	1
195.36	0.512	195.872	-2.7018656133053454	end_round	0.512	columbia_card_task_fmri	16.0	0.7777777777777778	71.0	-70.0	0.2222222222222222	10.0	2.0	2.0	3.592626389496914	0.512	1.0	stim	poldrack-single-stim	s635	False	1
196.625	1.5	195.874	n/a	-1.0	2.25	columbia_card_task_fmri	n/a	n/a	-1.0	n/a	n/a	n/a	n/a	n/a	n/a	n/a	n/a	ITI	poldrack-single-stim	s635	False	0
198.127	1.391	199.518	-1.507421168860901	end_round	1.391	columbia_card_task_fmri	7.0	0.9166666666666666	71.0	-100.0	0.0833333333333333	12.0	1.0	1.0	-2.587261505609224	1.391	0.0	stim	poldrack-single-stim	s635	False	1
200.273	1.5	199.522	n/a	-1.0	2.25	columbia_card_task_fmri	n/a	n/a	-1.0	n/a	n/a	n/a	n/a	n/a	n/a	n/a	n/a	ITI	poldrack-single-stim	s635	False	0
201.776	2.502	204.278	-1.2574211688608992	draw_card	2.502	columbia_card_task_fmri	14.0	0.8333333333333334	89.0	-80.0	0.1666666666666666	12.0	1.0	2.0	2.870791266979076	2.502	n/a	stim	poldrack-single-stim	s635	False	1
204.28	0.869	205.149	-2.681663593103328	draw_card	0.869	columbia_card_task_fmri	14.0	0.8181818181818181	89.0	-80.0	0.1818181818181818	12.0	2.0	2.0	4.094272098492532	0.869	n/a	stim	poldrack-single-stim	s635	False	1
205.151	0.773	205.924	-4.390754502194234	end_round	0.773	columbia_card_task_fmri	14.0	0.8	71.0	-80.0	0.2	12.0	3.0	2.0	5.438896356662781	0.773	2.0	stim	poldrack-single-stim	s635	False	1
206.677	1.5	205.926	n/a	-1.0	2.386	columbia_card_task_fmri	n/a	n/a	-1.0	n/a	n/a	n/a	n/a	n/a	n/a	n/a	n/a	ITI	poldrack-single-stim	s635	False	0
208.315	1.847	210.162	0.4092454978057652	draw_card	1.847	columbia_card_task_fmri	15.0	0.8333333333333334	89.0	-75.0	0.1666666666666666	12.0	1.0	2.0	1.3801855119954354	1.847	1.0	stim	poldrack-single-stim	s635	False	0
210.915	1.5	210.164	n/a	-1.0	2.386	columbia_card_task_fmri	n/a	n/a	-1.0	n/a	n/a	n/a	n/a	n/a	n/a	n/a	n/a	ITI	poldrack-single-stim	s635	False	0
212.554	2.51	215.064	-0.5907545021942349	draw_card	2.51	columbia_card_task_fmri	15.0	0.8	89.0	-65.0	0.2	15.0	1.0	3.0	-0.1607139326655513	2.51	n/a	stim	poldrack-single-stim	s635	False	1
215.067	2.011	217.078	-1.7336116450513772	draw_card	2.011	columbia_card_task_fmri	15.0	0.7857142857142857	89.0	-65.0	0.2142857142857142	15.0	2.0	3.0	0.6652924864126035	2.011	n/a	stim	poldrack-single-stim	s635	False	1
217.08	0.704	217.784	-3.052292963732698	end_round	0.704	columbia_card_task_fmri	15.0	0.7692307692307692	71.0	-65.0	0.2307692307692307	15.0	3.0	3.0	1.5451571689435255	0.704	2.0	stim	poldrack-single-stim	s635	False	1
218.537	1.5	217.786	n/a	-1.0	2.726	columbia_card_task_fmri	n/a	n/a	-1.0	n/a	n/a	n/a	n/a	n/a	n/a	n/a	n/a	ITI	poldrack-single-stim	s635	False	0
220.515	1.72	222.235	-1.3407545021942349	draw_card	1.72	columbia_card_task_fmri	14.0	0.8125	89.0	-70.0	0.1875	16.0	1.0	3.0	0.6254628110411531	1.72	n/a	stim	poldrack-single-stim	s635	False	1
222.237	0.438	222.675	-2.3907545021942336	draw_card	0.438	columbia_card_task_fmri	14.0	0.8	89.0	-70.0	0.2	16.0	2.0	3.0	1.439161467410166	0.438	n/a	stim	poldrack-single-stim	s635	False	1
222.678	0.58	223.258	-3.590754502194234	end_round	0.58	columbia_card_task_fmri	14.0	0.7857142857142857	71.0	-70.0	0.2142857142857142	16.0	3.0	3.0	2.3064746346520977	0.58	2.0	stim	poldrack-single-stim	s635	False	1
224.011	1.5	223.26	n/a	-1.0	2.454	columbia_card_task_fmri	n/a	n/a	-1.0	n/a	n/a	n/a	n/a	n/a	n/a	n/a	n/a	ITI	poldrack-single-stim	s635	False	0
225.717	2.985	228.702	-1.4032545021942349	draw_card	2.985	columbia_card_task_fmri	11.0	0.6875	89.0	-30.0	0.3125	16.0	1.0	5.0	-13.154916129428702	2.985	n/a	stim	poldrack-single-stim	s635	False	1
228.705	0.543	229.248	-2.2574211688609007	draw_card	0.543	columbia_card_task_fmri	11.0	0.6666666666666667	89.0	-30.0	0.3333333333333333	16.0	2.0	5.0	-12.83141314708125	0.543	n/a	stim	poldrack-single-stim	s635	False	1
229.251	1.112	230.363	-3.2336116450513788	draw_card	1.112	columbia_card_task_fmri	11.0	0.6428571428571428	89.0	-30.0	0.3571428571428571	16.0	3.0	5.0	-12.51361420715358	1.112	n/a	stim	poldrack-single-stim	s635	False	1
230.366	0.787	231.153	-4.359985271425003	end_round	0.787	columbia_card_task_fmri	11.0	0.6153846153846154	71.0	-30.0	0.3846153846153846	16.0	4.0	5.0	-12.212458459284464	0.787	3.0	stim	poldrack-single-stim	s635	False	1
231.905	1.5	231.154	n/a	-1.0	2.318	columbia_card_task_fmri	n/a	n/a	-1.0	n/a	n/a	n/a	n/a	n/a	n/a	n/a	n/a	ITI	poldrack-single-stim	s635	False	0
233.477	2.011	235.488	3.4092454978057654	draw_card	2.011	columbia_card_task_fmri	15.0	0.8666666666666667	89.0	-75.0	0.1333333333333333	15.0	1.0	2.0	-1.566476612671984	2.011	n/a	stim	poldrack-single-stim	s635	False	1
235.491	0.464	235.955	2.552102640662909	draw_card	0.464	columbia_card_task_fmri	15.0	0.8571428571428572	89.0	-75.0	0.1428571428571428	15.0	2.0	2.0	-0.667232295893637	0.464	n/a	stim	poldrack-single-stim	s635	False	1
235.958	1.056	237.014	1.5630916516519184	draw_card	1.056	columbia_card_task_fmri	15.0	0.8461538461538461	89.0	-75.0	0.1538461538461538	15.0	3.0	2.0	0.3113571314639145	1.056	n/a	stim	poldrack-single-stim	s635	False	1
237.017	0.77	237.787	0.4092454978057652	draw_card	0.77	columbia_card_task_fmri	15.0	0.8333333333333334	89.0	-75.0	0.1666666666666666	15.0	4.0	2.0	1.3801855119954354	0.77	n/a	stim	poldrack-single-stim	s635	False	1
237.79	1.874	239.664	-0.9543908658306	end_round	1.874	columbia_card_task_fmri	15.0	0.8181818181818181	71.0	-75.0	0.1818181818181818	15.0	5.0	2.0	2.551596312454599	1.874	4.0	stim	poldrack-single-stim	s635	False	1
240.417	1.5	239.666	n/a	-1.0	2.318	columbia_card_task_fmri	n/a	n/a	-1.0	n/a	n/a	n/a	n/a	n/a	n/a	n/a	n/a	ITI	poldrack-single-stim	s635	False	0
241.989	3.857	245.846	5.142578831139099	draw_card	3.857	columbia_card_task_fmri	17.0	0.8666666666666667	89.0	-75.0	0.1333333333333333	15.0	1.0	2.0	-0.8866668398203892	3.857	n/a	stim	poldrack-single-stim	s635	False	1
245.848	0.481	246.329	4.266388354948624	draw_card	0.481	columbia_card_task_fmri	17.0	0.8571428571428572	89.0	-75.0	0.1428571428571428	15.0	2.0	2.0	0.0325641192247374	0.481	n/a	stim	poldrack-single-stim	s635	False	1
246.333	0.508	246.841	3.255399343959612	draw_card	0.508	columbia_card_task_fmri	17.0	0.8461538461538461	89.0	-75.0	0.1538461538461538	15.0	3.0	2.0	1.032903500468322	0.508	n/a	stim	poldrack-single-stim	s635	False	1
246.843	0.569	247.412	2.075912164472433	draw_card	0.569	columbia_card_task_fmri	17.0	0.8333333333333334	89.0	-75.0	0.1666666666666666	15.0	4.0	2.0	2.125487234936564	0.569	n/a	stim	poldrack-single-stim	s635	False	1
247.415	0.661	248.076	0.6819727705330367	draw_card	0.661	columbia_card_task_fmri	17.0	0.8181818181818181	89.0	-75.0	0.1818181818181818	15.0	5.0	2.0	3.322933089871391	0.661	n/a	stim	poldrack-single-stim	s635	False	1
248.078	1.399	249.477	-0.9907545021942334	draw_card	1.399	columbia_card_task_fmri	17.0	0.8	89.0	-75.0	0.2	15.0	6.0	2.0	4.638944768628704	1.399	n/a	stim	poldrack-single-stim	s635	False	1
249.48	1.627	251.107	-3.035198946638676	end_round	1.627	columbia_card_task_fmri	17.0	0.7777777777777778	71.0	-75.0	0.2222222222222222	15.0	7.0	2.0	6.086911911372361	1.627	6.0	stim	poldrack-single-stim	s635	False	1
251.86	1.5	251.109	n/a	-1.0	2.59	columbia_card_task_fmri	n/a	n/a	-1.0	n/a	n/a	n/a	n/a	n/a	n/a	n/a	n/a	ITI	poldrack-single-stim	s635	False	0
253.703	2.819	256.522	0.7217454978057651	draw_card	2.819	columbia_card_task_fmri	2.0	0.9375	89.0	-25.0	0.0625	16.0	1.0	1.0	-25.614870939531407	2.819	n/a	stim	poldrack-single-stim	s635	False	1
256.525	0.569	257.094	0.6092454978057651	draw_card	0.569	columbia_card_task_fmri	2.0	0.9333333333333332	89.0	-25.0	0.0666666666666666	16.0	2.0	1.0	-25.415925163607746	0.569	n/a	stim	poldrack-single-stim	s635	False	1
257.097	0.443	257.54	0.4806740692343368	draw_card	0.443	columbia_card_task_fmri	2.0	0.9285714285714286	89.0	-25.0	0.0714285714285714	16.0	3.0	1.0	-25.19773508470844	0.443	n/a	stim	poldrack-single-stim	s635	False	1
257.543	1.028	258.571	0.3323224208826883	draw_card	1.028	columbia_card_task_fmri	2.0	0.9230769230769232	89.0	-25.0	0.0769230769230769	16.0	4.0	1.0	-24.95702824628185	1.028	n/a	stim	poldrack-single-stim	s635	False	1
258.574	1.035	259.609	0.1592454978057654	end_round	1.035	columbia_card_task_fmri	2.0	0.9166666666666666	71.0	-25.0	0.0833333333333333	16.0	5.0	1.0	-24.689711668436104	1.035	4.0	stim	poldrack-single-stim	s635	False	1
260.363	1.5	259.612	n/a	-1.0	2.726	columbia_card_task_fmri	n/a	n/a	-1.0	n/a	n/a	n/a	n/a	n/a	n/a	n/a	n/a	ITI	poldrack-single-stim	s635	False	0
262.342	2.767	265.109	2.9092454978057654	draw_card	2.767	columbia_card_task_fmri	9.0	0.9375	89.0	-95.0	0.0625	16.0	1.0	1.0	-6.985612765952364	2.767	n/a	stim	poldrack-single-stim	s635	False	1
265.112	0.392	265.504	2.4759121644724327	end_round	0.392	columbia_card_task_fmri	9.0	0.9333333333333332	71.0	-95.0	0.0666666666666666	16.0	2.0	1.0	-6.217945062550925	0.392	1.0	stim	poldrack-single-stim	s635	False	1
266.257	1.5	265.506	n/a	-1.0	2.522	columbia_card_task_fmri	n/a	n/a	-1.0	n/a	n/a	n/a	n/a	n/a	n/a	n/a	n/a	ITI	poldrack-single-stim	s635	False	0
268.032	3.571	271.603	4.471745497805765	draw_card	3.571	columbia_card_task_fmri	11.0	0.9375	89.0	-100.0	0.0625	16.0	1.0	1.0	-5.291392288065751	3.571	n/a	stim	poldrack-single-stim	s635	False	1
271.607	0.836	272.443	4.009245497805765	end_round	0.836	columbia_card_task_fmri	11.0	0.9333333333333332	71.0	-100.0	0.0666666666666666	16.0	2.0	1.0	-4.472041813138578	0.836	1.0	stim	poldrack-single-stim	s635	False	1
273.196	1.5	272.445	n/a	-1.0	3.134	columbia_card_task_fmri	n/a	n/a	-1.0	n/a	n/a	n/a	n/a	n/a	n/a	n/a	n/a	ITI	poldrack-single-stim	s635	False	0
275.583	2.728	278.311	5.034245497805765	draw_card	2.728	columbia_card_task_fmri	16.0	0.875	89.0	-75.0	0.125	16.0	1.0	2.0	-2.065127180999617	2.728	n/a	stim	poldrack-single-stim	s635	False	1
278.314	0.457	278.771	4.275912164472432	draw_card	0.457	columbia_card_task_fmri	16.0	0.8666666666666667	89.0	-75.0	0.1333333333333333	16.0	2.0	2.0	-1.226572053102334	0.457	n/a	stim	poldrack-single-stim	s635	False	1
278.774	0.579	279.353	3.409245497805767	end_round	0.579	columbia_card_task_fmri	16.0	0.8571428571428572	71.0	-75.0	0.1428571428571428	16.0	3.0	2.0	-0.3173344058616223	0.579	2.0	stim	poldrack-single-stim	s635	False	1
280.107	1.5	279.356	n/a	-1.0	2.386	columbia_card_task_fmri	n/a	n/a	-1.0	n/a	n/a	n/a	n/a	n/a	n/a	n/a	n/a	ITI	poldrack-single-stim	s635	False	0
281.745	2.264	284.009	5.284245497805765	draw_card	2.264	columbia_card_task_fmri	17.0	0.875	89.0	-80.0	0.125	16.0	1.0	2.0	-0.0809857895653678	2.264	n/a	stim	poldrack-single-stim	s635	False	1
284.013	0.377	284.39	4.475912164472433	draw_card	0.377	columbia_card_task_fmri	17.0	0.8666666666666667	89.0	-80.0	0.1333333333333333	16.0	2.0	2.0	0.8128683247613253	0.377	n/a	stim	poldrack-single-stim	s635	False	1
284.393	0.763	285.156	3.5521026406629117	draw_card	0.763	columbia_card_task_fmri	17.0	0.8571428571428572	89.0	-80.0	0.1428571428571428	16.0	3.0	2.0	1.7820655831467604	0.763	n/a	stim	poldrack-single-stim	s635	False	1
285.159	0.565	285.724	2.486168574728842	end_round	0.565	columbia_card_task_fmri	17.0	0.8461538461538461	71.0	-80.0	0.1538461538461538	16.0	4.0	2.0	2.8367795350174774	0.565	3.0	stim	poldrack-single-stim	s635	False	1
286.477	1.5	285.726	n/a	-1.0	2.386	columbia_card_task_fmri	n/a	n/a	-1.0	n/a	n/a	n/a	n/a	n/a	n/a	n/a	n/a	ITI	poldrack-single-stim	s635	False	0
299.118	2.446	301.564	-0.4240878355275669	draw_card	2.446	columbia_card_task_fmri	13.0	0.8333333333333334	89.0	-70.0	0.1666666666666666	6.0	1.0	1.0	-1.2283499245654674	2.446	n/a	stim	poldrack-single-stim	s635	False	1
301.567	0.387	301.954	-3.1907545021942343	end_round	0.387	columbia_card_task_fmri	13.0	0.8	71.0	-70.0	0.2	6.0	2.0	1.0	1.039191491617686	0.387	1.0	stim	poldrack-single-stim	s635	False	1
302.708	1.5	301.957	n/a	-1.0	2.318	columbia_card_task_fmri	n/a	n/a	-1.0	n/a	n/a	n/a	n/a	n/a	n/a	n/a	n/a	ITI	poldrack-single-stim	s635	False	0
304.278	2.126	306.404	-0.4240878355275669	draw_card	2.126	columbia_card_task_fmri	15.0	0.8333333333333334	89.0	-80.0	0.1666666666666666	6.0	1.0	1.0	3.243444103345212	2.126	n/a	stim	poldrack-single-stim	s635	False	1
306.407	0.369	306.776	-3.590754502194234	end_round	0.369	columbia_card_task_fmri	15.0	0.8	71.0	-80.0	0.2	6.0	2.0	1.0	5.838872915011827	0.369	1.0	stim	poldrack-single-stim	s635	False	1
307.529	1.5	306.778	n/a	-1.0	2.318	columbia_card_task_fmri	n/a	n/a	-1.0	n/a	n/a	n/a	n/a	n/a	n/a	n/a	n/a	ITI	poldrack-single-stim	s635	False	0
309.1	1.764	310.864	1.242578831139099	draw_card	1.764	columbia_card_task_fmri	16.0	0.8333333333333334	89.0	-75.0	0.1666666666666666	6.0	1.0	1.0	1.7528360753141785	1.764	n/a	stim	poldrack-single-stim	s635	False	1
310.868	0.352	311.22	-1.7907545021942342	end_round	0.352	columbia_card_task_fmri	16.0	0.8	71.0	-75.0	0.2	6.0	2.0	1.0	4.238969772536542	0.352	1.0	stim	poldrack-single-stim	s635	False	1
311.973	1.5	311.222	n/a	-1.0	2.862	columbia_card_task_fmri	n/a	n/a	-1.0	n/a	n/a	n/a	n/a	n/a	n/a	n/a	n/a	ITI	poldrack-single-stim	s635	False	0
314.089	2.266	316.355	2.4092454978057654	draw_card	2.266	columbia_card_task_fmri	21.0	0.75	89.0	-55.0	0.25	8.0	1.0	2.0	0.7481791392998289	2.266	1.0	stim	poldrack-single-stim	s635	False	0
317.109	1.5	316.358	n/a	-1.0	2.726	columbia_card_task_fmri	n/a	n/a	-1.0	n/a	n/a	n/a	n/a	n/a	n/a	n/a	n/a	ITI	poldrack-single-stim	s635	False	0
319.088	2.026	321.114	3.659245497805765	draw_card	2.026	columbia_card_task_fmri	26.0	0.75	89.0	-65.0	0.25	8.0	1.0	2.0	7.24295026525418	2.026	n/a	stim	poldrack-single-stim	s635	False	1
321.118	0.949	322.067	0.4092454978057687	end_round	0.949	columbia_card_task_fmri	26.0	0.7142857142857143	71.0	-65.0	0.2857142857142857	8.0	2.0	2.0	8.948315817868973	0.949	1.0	stim	poldrack-single-stim	s635	False	1
322.821	1.5	322.07	n/a	-1.0	2.25	columbia_card_task_fmri	n/a	n/a	-1.0	n/a	n/a	n/a	n/a	n/a	n/a	n/a	n/a	ITI	poldrack-single-stim	s635	False	0
324.324	1.743	326.067	-1.257421168860901	draw_card	1.743	columbia_card_task_fmri	15.0	0.7777777777777778	89.0	-60.0	0.2222222222222222	9.0	1.0	2.0	-0.98016693767023	1.743	n/a	stim	poldrack-single-stim	s635	False	1
326.07	0.763	326.833	-3.340754502194234	draw_card	0.763	columbia_card_task_fmri	15.0	0.75	89.0	-60.0	0.25	9.0	2.0	2.0	0.3152003617385261	0.763	n/a	stim	poldrack-single-stim	s635	False	1
326.837	0.652	327.489	-6.019325930765662	end_round	0.652	columbia_card_task_fmri	15.0	0.7142857142857143	71.0	-60.0	0.2857142857142857	9.0	3.0	2.0	1.720687118396846	0.652	2.0	stim	poldrack-single-stim	s635	False	1
328.242	1.5	327.491	n/a	-1.0	2.318	columbia_card_task_fmri	n/a	n/a	-1.0	n/a	n/a	n/a	n/a	n/a	n/a	n/a	n/a	ITI	poldrack-single-stim	s635	False	0
329.813	1.93	331.743	3.1092454978057664	draw_card	1.93	columbia_card_task_fmri	13.0	0.9	89.0	-90.0	0.1	10.0	1.0	1.0	-1.26062078609624	1.93	n/a	stim	poldrack-single-stim	s635	False	1
331.746	0.592	332.338	1.9648010533613205	draw_card	0.592	columbia_card_task_fmri	13.0	0.8888888888888888	89.0	-90.0	0.1111111111111111	10.0	2.0	1.0	0.2090332709936575	0.592	n/a	stim	poldrack-single-stim	s635	False	1
332.341	0.961	333.302	0.5342454978057651	end_round	0.961	columbia_card_task_fmri	13.0	0.875	71.0	-90.0	0.125	10.0	3.0	1.0	1.9031756490962335	0.961	2.0	stim	poldrack-single-stim	s635	False	1
334.056	1.5	333.305	n/a	-1.0	2.454	columbia_card_task_fmri	n/a	n/a	-1.0	n/a	n/a	n/a	n/a	n/a	n/a	n/a	n/a	ITI	poldrack-single-stim	s635	False	0
335.762	3.364	339.126	4.409245497805765	draw_card	3.364	columbia_card_task_fmri	15.0	0.9	89.0	-95.0	0.1	10.0	1.0	1.0	0.8392067766375604	3.364	n/a	stim	poldrack-single-stim	s635	False	1
339.129	0.728	339.857	3.187023275583542	draw_card	0.728	columbia_card_task_fmri	15.0	0.8888888888888888	89.0	-95.0	0.1111111111111111	10.0	2.0	1.0	2.408756425276856	0.728	n/a	stim	poldrack-single-stim	s635	False	1
339.861	0.527	340.388	1.6592454978057651	end_round	0.527	columbia_card_task_fmri	15.0	0.875	71.0	-95.0	0.125	10.0	3.0	1.0	4.21805162247491	0.527	2.0	stim	poldrack-single-stim	s635	False	1
341.141	1.5	340.39	n/a	-1.0	2.522	columbia_card_task_fmri	n/a	n/a	-1.0	n/a	n/a	n/a	n/a	n/a	n/a	n/a	n/a	ITI	poldrack-single-stim	s635	False	0
342.917	1.707	344.624	0.2092454978057659	draw_card	1.707	columbia_card_task_fmri	16.0	0.8	89.0	-65.0	0.2	10.0	1.0	2.0	0.2392537637873317	1.707	n/a	stim	poldrack-single-stim	s635	False	1
344.627	0.395	345.022	-1.590754502194233	draw_card	0.395	columbia_card_task_fmri	16.0	0.7777777777777778	89.0	-65.0	0.2222222222222222	10.0	2.0	2.0	1.514072404401702	0.395	n/a	stim	poldrack-single-stim	s635	False	1
345.026	0.454	345.48	-3.840754502194234	draw_card	0.454	columbia_card_task_fmri	16.0	0.75	89.0	-65.0	0.25	10.0	3.0	2.0	2.913085590328251	0.454	n/a	stim	poldrack-single-stim	s635	False	1
345.484	0.631	346.115	-6.733611645051376	end_round	0.631	columbia_card_task_fmri	16.0	0.7142857142857143	71.0	-65.0	0.2857142857142857	10.0	4.0	2.0	4.431027765725872	0.631	3.0	stim	poldrack-single-stim	s635	False	1
346.869	1.5	346.118	n/a	-1.0	2.318	columbia_card_task_fmri	n/a	n/a	-1.0	n/a	n/a	n/a	n/a	n/a	n/a	n/a	n/a	ITI	poldrack-single-stim	s635	False	0
348.441	3.853	352.294	-1.0907545021942349	draw_card	3.853	columbia_card_task_fmri	7.0	0.9166666666666666	89.0	-95.0	0.0833333333333333	12.0	1.0	1.0	-3.969049716342543	3.853	n/a	stim	poldrack-single-stim	s635	False	1
352.298	0.444	352.742	-1.863481774921508	draw_card	0.444	columbia_card_task_fmri	7.0	0.9090909090909092	89.0	-95.0	0.0909090909090909	12.0	2.0	1.0	-2.837536748917895	0.444	n/a	stim	poldrack-single-stim	s635	False	1
352.745	2.723	355.468	-2.790754502194235	draw_card	2.723	columbia_card_task_fmri	7.0	0.9	89.0	-95.0	0.1	12.0	3.0	1.0	-1.5605942203828853	2.723	3.0	stim	poldrack-single-stim	s635	False	0
356.223	1.5	355.472	n/a	-1.0	2.522	columbia_card_task_fmri	n/a	n/a	-1.0	n/a	n/a	n/a	n/a	n/a	n/a	n/a	n/a	ITI	poldrack-single-stim	s635	False	0
357.998	2.472	360.47	-0.4240878355275669	draw_card	2.472	columbia_card_task_fmri	14.0	0.8333333333333334	89.0	-75.0	0.1666666666666666	12.0	1.0	2.0	1.007535565077454	2.472	n/a	stim	poldrack-single-stim	s635	False	1
360.473	0.367	360.84	-1.7725726840124183	draw_card	0.367	columbia_card_task_fmri	14.0	0.8181818181818181	89.0	-75.0	0.1818181818181818	12.0	2.0	2.0	2.165928807447024	0.367	n/a	stim	poldrack-single-stim	s635	False	1
360.843	1.243	362.086	-3.3907545021942336	draw_card	1.243	columbia_card_task_fmri	14.0	0.8	89.0	-75.0	0.2	12.0	3.0	2.0	3.4390214658449167	1.243	n/a	stim	poldrack-single-stim	s635	False	1
362.089	0.815	362.904	-5.36853227997201	draw_card	0.815	columbia_card_task_fmri	14.0	0.7777777777777778	89.0	-75.0	0.2222222222222222	12.0	4.0	2.0	4.839766576469167	0.815	n/a	stim	poldrack-single-stim	s635	False	1
362.907	0.541	363.448	-7.840754502194235	end_round	0.541	columbia_card_task_fmri	14.0	0.75	71.0	-75.0	0.25	12.0	5.0	2.0	6.376972614381486	0.541	4.0	stim	poldrack-single-stim	s635	False	1
364.203	1.5	363.452	n/a	-1.0	2.998	columbia_card_task_fmri	n/a	n/a	-1.0	n/a	n/a	n/a	n/a	n/a	n/a	n/a	n/a	ITI	poldrack-single-stim	s635	False	0
366.455	3.919	370.374	1.242578831139099	draw_card	3.919	columbia_card_task_fmri	15.0	0.8333333333333334	89.0	-70.0	0.1666666666666666	12.0	1.0	2.0	-0.4830576235499961	3.919	n/a	stim	poldrack-single-stim	s635	False	1
370.377	0.331	370.708	-0.0452999567396916	draw_card	0.331	columbia_card_task_fmri	15.0	0.8181818181818181	89.0	-70.0	0.1818181818181818	12.0	2.0	2.0	0.6232651638523237	0.331	2.0	stim	poldrack-single-stim	s635	False	0
371.462	1.5	370.711	n/a	-1.0	2.318	columbia_card_task_fmri	n/a	n/a	-1.0	n/a	n/a	n/a	n/a	n/a	n/a	n/a	n/a	ITI	poldrack-single-stim	s635	False	0
373.033	2.093	375.126	-0.7907545021942342	draw_card	2.093	columbia_card_task_fmri	16.0	0.8	89.0	-70.0	0.2	15.0	1.0	3.0	2.239103513480501	2.093	1.0	stim	poldrack-single-stim	s635	False	0
375.88	1.5	375.129	n/a	-1.0	2.25	columbia_card_task_fmri	n/a	n/a	-1.0	n/a	n/a	n/a	n/a	n/a	n/a	n/a	n/a	ITI	poldrack-single-stim	s635	False	0
377.384	3.794	381.178	-0.4032545021942348	draw_card	3.794	columbia_card_task_fmri	14.0	0.8125	89.0	-65.0	0.1875	16.0	1.0	3.0	-1.3259374285705017	3.794	n/a	stim	poldrack-single-stim	s635	False	1
381.182	1.013	382.195	-1.3907545021942338	draw_card	1.013	columbia_card_task_fmri	14.0	0.8	89.0	-65.0	0.2	16.0	2.0	3.0	-0.5606808114087052	1.013	n/a	stim	poldrack-single-stim	s635	False	1
382.199	0.532	382.731	-2.5193259307656617	draw_card	0.532	columbia_card_task_fmri	14.0	0.7857142857142857	89.0	-65.0	0.2142857142857142	16.0	3.0	3.0	0.2549988710439876	0.532	n/a	stim	poldrack-single-stim	s635	False	1
382.735	0.798	383.533	-3.8215237329634655	draw_card	0.798	columbia_card_task_fmri	14.0	0.7692307692307692	89.0	-65.0	0.2307692307692307	16.0	4.0	3.0	1.1238635699439712	0.798	n/a	stim	poldrack-single-stim	s635	False	1
383.536	1.749	385.285	-5.340754502194235	end_round	1.749	columbia_card_task_fmri	14.0	0.75	71.0	-65.0	0.25	16.0	5.0	3.0	2.0471206244764915	1.749	4.0	stim	poldrack-single-stim	s635	False	1
386.039	1.5	385.288	n/a	-1.0	2.454	columbia_card_task_fmri	n/a	n/a	-1.0	n/a	n/a	n/a	n/a	n/a	n/a	n/a	n/a	ITI	poldrack-single-stim	s635	False	0
387.746	1.859	389.605	-0.6532545021942349	draw_card	1.859	columbia_card_task_fmri	16.0	0.8125	89.0	-75.0	0.1875	16.0	1.0	3.0	3.357452983580764	1.859	n/a	stim	poldrack-single-stim	s635	False	1
389.608	0.487	390.095	-1.7907545021942342	draw_card	0.487	columbia_card_task_fmri	16.0	0.8	89.0	-75.0	0.2	16.0	2.0	3.0	4.238969772536542	0.487	2.0	stim	poldrack-single-stim	s635	False	0
390.85	1.5	390.099	n/a	-1.0	2.318	columbia_card_task_fmri	n/a	n/a	-1.0	n/a	n/a	n/a	n/a	n/a	n/a	n/a	n/a	ITI	poldrack-single-stim	s635	False	0
392.422	4.143	396.565	3.6092454978057664	draw_card	4.143	columbia_card_task_fmri	16.0	0.8666666666666667	89.0	-80.0	0.1333333333333333	15.0	1.0	2.0	0.4729601419269826	4.143	n/a	stim	poldrack-single-stim	s635	False	1
396.568	1.28	397.848	2.6949597835200536	draw_card	1.28	columbia_card_task_fmri	16.0	0.8571428571428572	89.0	-80.0	0.1428571428571428	15.0	2.0	2.0	1.432164173266095	1.28	n/a	stim	poldrack-single-stim	s635	False	1
397.853	1.295	399.148	1.640014728574995	draw_card	1.295	columbia_card_task_fmri	16.0	0.8461538461538461	89.0	-80.0	0.1538461538461538	15.0	3.0	2.0	2.4760032446646605	1.295	n/a	stim	poldrack-single-stim	s635	False	1
399.152	0.455	399.607	0.4092454978057669	draw_card	0.455	columbia_card_task_fmri	16.0	0.8333333333333334	89.0	-80.0	0.1666666666666666	15.0	4.0	2.0	3.616097463823621	0.455	4.0	stim	poldrack-single-stim	s635	False	0
400.361	1.5	399.61	n/a	-1.0	2.318	columbia_card_task_fmri	n/a	n/a	-1.0	n/a	n/a	n/a	n/a	n/a	n/a	n/a	n/a	ITI	poldrack-single-stim	s635	False	0
401.933	4.339	406.272	4.475912164472433	draw_card	4.339	columbia_card_task_fmri	17.0	0.8666666666666667	89.0	-80.0	0.1333333333333333	15.0	1.0	2.0	0.8128683247613253	4.339	n/a	stim	poldrack-single-stim	s635	False	1
406.276	0.36	406.636	3.5521026406629117	draw_card	0.36	columbia_card_task_fmri	17.0	0.8571428571428572	89.0	-80.0	0.1428571428571428	15.0	2.0	2.0	1.7820655831467604	0.36	n/a	stim	poldrack-single-stim	s635	False	1
406.641	0.291	406.932	2.486168574728842	draw_card	0.291	columbia_card_task_fmri	17.0	0.8461538461538461	89.0	-80.0	0.1538461538461538	15.0	3.0	2.0	2.8367795350174774	0.291	n/a	stim	poldrack-single-stim	s635	False	1
406.936	0.386	407.322	1.2425788311391008	draw_card	0.386	columbia_card_task_fmri	17.0	0.8333333333333334	89.0	-80.0	0.1666666666666666	15.0	4.0	2.0	3.9887513322067454	0.386	n/a	stim	poldrack-single-stim	s635	False	1
407.326	0.603	407.929	-0.2271181385578732	end_round	0.603	columbia_card_task_fmri	17.0	0.8181818181818181	71.0	-80.0	0.1818181818181818	15.0	5.0	2.0	5.251284493067331	0.603	4.0	stim	poldrack-single-stim	s635	False	1
408.683	1.5	407.932	n/a	-1.0	2.59	columbia_card_task_fmri	n/a	n/a	-1.0	n/a	n/a	n/a	n/a	n/a	n/a	n/a	n/a	ITI	poldrack-single-stim	s635	False	0
410.526	1.921	412.447	0.4092454978057652	end_round	1.921	columbia_card_task_fmri	1.0	0.9375	71.0	-15.0	0.0625	16.0	1.0	1.0	-28.26878558615835	1.921	0.0	stim	poldrack-single-stim	s635	False	1
413.201	1.5	412.45	n/a	-1.0	2.25	columbia_card_task_fmri	n/a	n/a	-1.0	n/a	n/a	n/a	n/a	n/a	n/a	n/a	n/a	ITI	poldrack-single-stim	s635	False	0
414.705	2.231	416.936	3.5342454978057654	end_round	2.231	columbia_card_task_fmri	10.0	0.9375	71.0	-100.0	0.0625	16.0	1.0	1.0	-5.533425418919624	2.231	0.0	stim	poldrack-single-stim	s635	False	1
417.69	1.5	416.939	n/a	-1.0	2.25	columbia_card_task_fmri	n/a	n/a	-1.0	n/a	n/a	n/a	n/a	n/a	n/a	n/a	n/a	ITI	poldrack-single-stim	s635	False	0
419.194	4.058	423.252	4.159245497805765	draw_card	4.058	columbia_card_task_fmri	15.0	0.875	89.0	-75.0	0.125	16.0	1.0	2.0	-2.39581518239234	4.058	n/a	stim	poldrack-single-stim	s635	False	1
423.256	0.38	423.636	3.4092454978057654	draw_card	0.38	columbia_card_task_fmri	15.0	0.8666666666666667	89.0	-75.0	0.1333333333333333	16.0	2.0	2.0	-1.566476612671984	0.38	n/a	stim	poldrack-single-stim	s635	False	1
423.64	0.998	424.638	2.552102640662909	end_round	0.998	columbia_card_task_fmri	15.0	0.8571428571428572	71.0	-75.0	0.1428571428571428	16.0	3.0	2.0	-0.667232295893637	0.998	2.0	stim	poldrack-single-stim	s635	False	1
425.392	1.5	424.641	n/a	-1.0	2.522	columbia_card_task_fmri	n/a	n/a	-1.0	n/a	n/a	n/a	n/a	n/a	n/a	n/a	n/a	ITI	poldrack-single-stim	s635	False	0
427.168	2.749	429.917	4.409245497805765	draw_card	2.749	columbia_card_task_fmri	16.0	0.875	89.0	-80.0	0.125	16.0	1.0	2.0	-0.4116775151351639	2.749	n/a	stim	poldrack-single-stim	s635	False	1
429.921	0.488	430.409	3.6092454978057664	draw_card	0.488	columbia_card_task_fmri	16.0	0.8666666666666667	89.0	-80.0	0.1333333333333333	16.0	2.0	2.0	0.4729601419269826	0.488	n/a	stim	poldrack-single-stim	s635	False	1
430.413	0.501	430.914	2.6949597835200536	draw_card	0.501	columbia_card_task_fmri	16.0	0.8571428571428572	89.0	-80.0	0.1428571428571428	16.0	3.0	2.0	1.432164173266095	0.501	n/a	stim	poldrack-single-stim	s635	False	1
430.919	0.813	431.732	1.640014728574995	end_round	0.813	columbia_card_task_fmri	16.0	0.8461538461538461	71.0	-80.0	0.1538461538461538	16.0	4.0	2.0	2.4760032446646605	0.813	3.0	stim	poldrack-single-stim	s635	False	1
432.486	1.5	431.735	n/a	-1.0	2.454	columbia_card_task_fmri	n/a	n/a	-1.0	n/a	n/a	n/a	n/a	n/a	n/a	n/a	n/a	ITI	poldrack-single-stim	s635	False	0
434.194	4.576	438.77	1.5967454978057651	draw_card	4.576	columbia_card_task_fmri	4.0	0.6875	89.0	-5.0	0.3125	16.0	1.0	5.0	-27.97169314697633	4.576	n/a	stim	poldrack-single-stim	s635	False	1
438.774	0.639	439.413	1.4092454978057656	draw_card	0.639	columbia_card_task_fmri	4.0	0.6666666666666667	89.0	-5.0	0.3333333333333333	16.0	2.0	5.0	-27.90099781510287	0.639	n/a	stim	poldrack-single-stim	s635	False	1
439.417	0.497	439.914	1.1949597835200505	end_round	0.497	columbia_card_task_fmri	4.0	0.6428571428571428	71.0	-5.0	0.3571428571428571	16.0	3.0	5.0	-27.83153887755317	0.497	2.0	stim	poldrack-single-stim	s635	False	1
440.668	1.5	439.917	n/a	-1.0	2.25	columbia_card_task_fmri	n/a	n/a	-1.0	n/a	n/a	n/a	n/a	n/a	n/a	n/a	n/a	ITI	poldrack-single-stim	s635	False	0
442.172	2.718	444.89	-1.2574211688608992	draw_card	2.718	columbia_card_task_fmri	14.0	0.8333333333333334	89.0	-80.0	0.1666666666666666	6.0	1.0	1.0	2.870791266979076	2.718	n/a	stim	poldrack-single-stim	s635	False	1
444.894	0.485	445.379	-4.390754502194234	end_round	0.485	columbia_card_task_fmri	14.0	0.8	71.0	-80.0	0.2	6.0	2.0	1.0	5.438896356662781	0.485	1.0	stim	poldrack-single-stim	s635	False	1
446.133	1.5	445.382	n/a	-1.0	2.454	columbia_card_task_fmri	n/a	n/a	-1.0	n/a	n/a	n/a	n/a	n/a	n/a	n/a	n/a	ITI	poldrack-single-stim	s635	False	0
447.841	1.428	449.269	0.4092454978057652	draw_card	1.428	columbia_card_task_fmri	15.0	0.8333333333333334	89.0	-75.0	0.1666666666666666	6.0	1.0	1.0	1.3801855119954354	1.428	n/a	stim	poldrack-single-stim	s635	False	1
449.273	0.357	449.63	-2.590754502194234	end_round	0.357	columbia_card_task_fmri	15.0	0.8	71.0	-75.0	0.2	6.0	2.0	1.0	3.83899533203352	0.357	1.0	stim	poldrack-single-stim	s635	False	1
450.384	1.5	449.633	n/a	-1.0	2.454	columbia_card_task_fmri	n/a	n/a	-1.0	n/a	n/a	n/a	n/a	n/a	n/a	n/a	n/a	ITI	poldrack-single-stim	s635	False	0
452.093	1.296	453.389	2.075912164472433	draw_card	1.296	columbia_card_task_fmri	16.0	0.8333333333333334	89.0	-70.0	0.1666666666666666	6.0	1.0	1.0	-0.1104103622822734	1.296	1.0	stim	poldrack-single-stim	s635	False	0
454.142	1.5	453.391	n/a	-1.0	2.522	columbia_card_task_fmri	n/a	n/a	-1.0	n/a	n/a	n/a	n/a	n/a	n/a	n/a	n/a	ITI	poldrack-single-stim	s635	False	0
455.919	1.948	457.867	2.6592454978057654	draw_card	1.948	columbia_card_task_fmri	23.0	0.75	89.0	-60.0	0.25	8.0	1.0	2.0	3.779053468561152	1.948	1.0	stim	poldrack-single-stim	s635	False	0
458.621	1.5	457.87	n/a	-1.0	2.454	columbia_card_task_fmri	n/a	n/a	-1.0	n/a	n/a	n/a	n/a	n/a	n/a	n/a	n/a	ITI	poldrack-single-stim	s635	False	0
460.329	1.956	462.285	3.1592454978057654	draw_card	1.956	columbia_card_task_fmri	27.0	0.75	89.0	-70.0	0.25	8.0	1.0	2.0	9.840895032140828	1.956	n/a	stim	poldrack-single-stim	s635	False	1
462.289	0.628	462.917	-0.3050402164799501	draw_card	0.628	columbia_card_task_fmri	27.0	0.7142857142857143	89.0	-70.0	0.2857142857142857	8.0	2.0	2.0	11.65871353438277	0.628	2.0	stim	poldrack-single-stim	s635	False	0
463.671	1.5	462.92	n/a	-1.0	2.658	columbia_card_task_fmri	n/a	n/a	-1.0	n/a	n/a	n/a	n/a	n/a	n/a	n/a	n/a	ITI	poldrack-single-stim	s635	False	0
465.582	1.835	467.417	-1.590754502194233	draw_card	1.835	columbia_card_task_fmri	16.0	0.7777777777777778	89.0	-65.0	0.2222222222222222	9.0	1.0	2.0	1.514072404401702	1.835	n/a	stim	poldrack-single-stim	s635	False	1
467.422	0.673	468.095	-3.840754502194234	draw_card	0.673	columbia_card_task_fmri	16.0	0.75	89.0	-65.0	0.25	9.0	2.0	2.0	2.913085590328251	0.673	n/a	stim	poldrack-single-stim	s635	False	1
468.099	1.789	469.888	-6.733611645051376	end_round	1.789	columbia_card_task_fmri	16.0	0.7142857142857143	71.0	-65.0	0.2857142857142857	9.0	3.0	2.0	4.431027765725872	1.789	2.0	stim	poldrack-single-stim	s635	False	1
470.643	1.5	469.892	n/a	-1.0	2.386	columbia_card_task_fmri	n/a	n/a	-1.0	n/a	n/a	n/a	n/a	n/a	n/a	n/a	n/a	ITI	poldrack-single-stim	s635	False	0
472.282	1.914	474.196	3.6092454978057664	draw_card	1.914	columbia_card_task_fmri	13.0	0.9	89.0	-85.0	0.1	10.0	1.0	1.0	-2.760482536720001	1.914	n/a	stim	poldrack-single-stim	s635	False	1
474.2	0.512	474.712	2.520356608916876	end_round	0.512	columbia_card_task_fmri	13.0	0.8888888888888888	71.0	-85.0	0.1111111111111111	10.0	2.0	1.0	-1.3621831579761228	0.512	1.0	stim	poldrack-single-stim	s635	False	1
475.466	1.5	474.715	n/a	-1.0	2.522	columbia_card_task_fmri	n/a	n/a	-1.0	n/a	n/a	n/a	n/a	n/a	n/a	n/a	n/a	ITI	poldrack-single-stim	s635	False	0
477.243	2.563	479.806	-1.3907545021942338	draw_card	2.563	columbia_card_task_fmri	14.0	0.8	89.0	-65.0	0.2	10.0	1.0	2.0	-0.5606808114087052	2.563	n/a	stim	poldrack-single-stim	s635	False	1
479.809	0.509	480.318	-3.146310057749788	draw_card	0.509	columbia_card_task_fmri	14.0	0.7777777777777778	89.0	-65.0	0.2222222222222222	10.0	2.0	2.0	0.6826559335440336	0.509	n/a	stim	poldrack-single-stim	s635	False	1
480.322	1.284	481.606	-5.340754502194235	draw_card	1.284	columbia_card_task_fmri	14.0	0.75	89.0	-65.0	0.25	10.0	3.0	2.0	2.0471206244764915	1.284	n/a	stim	poldrack-single-stim	s635	False	1
481.611	1.131	482.742	-8.162183073622804	end_round	1.131	columbia_card_task_fmri	14.0	0.7142857142857143	71.0	-65.0	0.2857142857142857	10.0	4.0	2.0	3.527577793946776	1.131	3.0	stim	poldrack-single-stim	s635	False	1
483.496	1.5	482.745	n/a	-1.0	2.59	columbia_card_task_fmri	n/a	n/a	-1.0	n/a	n/a	n/a	n/a	n/a	n/a	n/a	n/a	ITI	poldrack-single-stim	s635	False	0
485.34	1.586	486.926	0.0092454978057666	draw_card	1.586	columbia_card_task_fmri	17.0	0.8	89.0	-70.0	0.2	10.0	1.0	2.0	2.6390755356160938	1.586	n/a	stim	poldrack-single-stim	s635	False	1
486.93	0.391	487.321	-1.924087835527567	draw_card	0.391	columbia_card_task_fmri	17.0	0.7777777777777778	89.0	-70.0	0.2222222222222222	10.0	2.0	2.0	4.008339180293014	0.391	2.0	stim	poldrack-single-stim	s635	False	0
488.075	1.5	487.324	n/a	-1.0	2.386	columbia_card_task_fmri	n/a	n/a	-1.0	n/a	n/a	n/a	n/a	n/a	n/a	n/a	n/a	ITI	poldrack-single-stim	s635	False	0
489.715	2.043	491.758	-1.257421168860901	draw_card	2.043	columbia_card_task_fmri	13.0	0.8333333333333334	89.0	-75.0	0.1666666666666666	12.0	1.0	2.0	0.6348862555706845	2.043	n/a	stim	poldrack-single-stim	s635	False	1
491.762	0.581	492.343	-2.5907545021942364	draw_card	0.581	columbia_card_task_fmri	13.0	0.8181818181818181	89.0	-75.0	0.1818181818181818	12.0	2.0	2.0	1.780261918348316	0.581	n/a	stim	poldrack-single-stim	s635	False	1
492.348	1.968	494.316	-4.190754502194235	draw_card	1.968	columbia_card_task_fmri	13.0	0.8	89.0	-75.0	0.2	12.0	3.0	2.0	3.039048193547039	1.968	n/a	stim	poldrack-single-stim	s635	False	1
494.321	0.463	494.784	-6.146310057749789	end_round	0.463	columbia_card_task_fmri	13.0	0.7777777777777778	71.0	-75.0	0.2222222222222222	12.0	4.0	2.0	4.424052582822995	0.463	3.0	stim	poldrack-single-stim	s635	False	1
495.538	1.5	494.787	n/a	-1.0	2.59	columbia_card_task_fmri	n/a	n/a	-1.0	n/a	n/a	n/a	n/a	n/a	n/a	n/a	n/a	ITI	poldrack-single-stim	s635	False	0
497.382	1.883	499.265	0.4092454978057669	draw_card	1.883	columbia_card_task_fmri	14.0	0.8333333333333334	89.0	-70.0	0.1666666666666666	12.0	1.0	2.0	-0.8557041531251173	1.883	1.0	stim	poldrack-single-stim	s635	False	0
500.02	1.5	499.269	n/a	-1.0	2.318	columbia_card_task_fmri	n/a	n/a	-1.0	n/a	n/a	n/a	n/a	n/a	n/a	n/a	n/a	ITI	poldrack-single-stim	s635	False	0
501.591	1.967	503.558	0.4092454978057669	draw_card	1.967	columbia_card_task_fmri	16.0	0.8333333333333334	89.0	-80.0	0.1666666666666666	12.0	1.0	2.0	3.616097463823621	1.967	1.0	stim	poldrack-single-stim	s635	False	0
504.313	1.5	503.562	n/a	-1.0	2.25	columbia_card_task_fmri	n/a	n/a	-1.0	n/a	n/a	n/a	n/a	n/a	n/a	n/a	n/a	ITI	poldrack-single-stim	s635	False	0
505.817	2.019	507.836	0.2092454978057659	draw_card	2.019	columbia_card_task_fmri	16.0	0.8	89.0	-65.0	0.2	15.0	1.0	3.0	0.2392537637873317	2.019	n/a	stim	poldrack-single-stim	s635	False	1
507.841	0.61	508.451	-0.9478973593370909	draw_card	0.61	columbia_card_task_fmri	16.0	0.7857142857142857	89.0	-65.0	0.2142857142857142	15.0	2.0	3.0	1.0755868989229072	0.61	n/a	stim	poldrack-single-stim	s635	False	1
508.456	0.777	509.233	-2.283062194501928	draw_card	0.777	columbia_card_task_fmri	16.0	0.7692307692307692	89.0	-65.0	0.2307692307692307	15.0	3.0	3.0	1.9664515442838637	0.777	3.0	stim	poldrack-single-stim	s635	False	0
509.989	1.5	509.238	n/a	-1.0	2.454	columbia_card_task_fmri	n/a	n/a	-1.0	n/a	n/a	n/a	n/a	n/a	n/a	n/a	n/a	ITI	poldrack-single-stim	s635	False	0
511.697	0.893	512.59	-1.4657545021942349	draw_card	0.893	columbia_card_task_fmri	15.0	0.8125	89.0	-75.0	0.1875	16.0	1.0	3.0	2.967166802443081	0.893	n/a	stim	poldrack-single-stim	s635	False	1
512.594	1.895	514.489	-2.590754502194234	draw_card	1.895	columbia_card_task_fmri	15.0	0.8	89.0	-75.0	0.2	16.0	2.0	3.0	3.83899533203352	1.895	n/a	stim	poldrack-single-stim	s635	False	1
514.493	1.536	516.029	-3.8764687879085193	draw_card	1.536	columbia_card_task_fmri	15.0	0.7857142857142857	89.0	-75.0	0.2142857142857142	16.0	3.0	3.0	4.768268099201073	1.536	n/a	stim	poldrack-single-stim	s635	False	1
516.034	2.087	518.121	-5.359985271425009	end_round	2.087	columbia_card_task_fmri	15.0	0.7692307692307692	71.0	-75.0	0.2307692307692307	16.0	4.0	3.0	5.758131588351574	2.087	3.0	stim	poldrack-single-stim	s635	False	1
518.876	1.5	518.125	n/a	-1.0	3.27	columbia_card_task_fmri	n/a	n/a	-1.0	n/a	n/a	n/a	n/a	n/a	n/a	n/a	n/a	ITI	poldrack-single-stim	s635	False	0
521.4	2.572	523.972	-0.9032545021942348	draw_card	2.572	columbia_card_task_fmri	14.0	0.6875	89.0	-35.0	0.3125	16.0	1.0	5.0	-9.447536100994371	2.572	n/a	stim	poldrack-single-stim	s635	False	1
523.976	1.303	525.279	-1.924087835527567	draw_card	1.303	columbia_card_task_fmri	14.0	0.6666666666666667	89.0	-35.0	0.3333333333333333	16.0	2.0	5.0	-9.06088416188278	1.303	n/a	stim	poldrack-single-stim	s635	False	1
525.284	0.896	526.18	-3.090754502194234	end_round	0.896	columbia_card_task_fmri	14.0	0.6428571428571428	71.0	-35.0	0.3571428571428571	16.0	3.0	5.0	-8.681050562240518	0.896	2.0	stim	poldrack-single-stim	s635	False	1
526.934	1.5	526.183	n/a	-1.0	2.25	columbia_card_task_fmri	n/a	n/a	-1.0	n/a	n/a	n/a	n/a	n/a	n/a	n/a	n/a	ITI	poldrack-single-stim	s635	False	0
528.438	2.367	530.805	4.275912164472432	draw_card	2.367	columbia_card_task_fmri	16.0	0.8666666666666667	89.0	-75.0	0.1333333333333333	15.0	1.0	2.0	-1.226572053102334	2.367	n/a	stim	poldrack-single-stim	s635	False	1
530.809	0.556	531.365	3.409245497805767	draw_card	0.556	columbia_card_task_fmri	16.0	0.8571428571428572	89.0	-75.0	0.1428571428571428	15.0	2.0	2.0	-0.3173344058616223	0.556	n/a	stim	poldrack-single-stim	s635	False	1
531.369	0.667	532.036	2.4092454978057654	draw_card	0.667	columbia_card_task_fmri	16.0	0.8461538461538461	89.0	-75.0	0.1538461538461538	15.0	3.0	2.0	0.6721300080042951	0.667	3.0	stim	poldrack-single-stim	s635	False	0
532.792	1.5	532.041	n/a	-1.0	2.25	columbia_card_task_fmri	n/a	n/a	-1.0	n/a	n/a	n/a	n/a	n/a	n/a	n/a	n/a	ITI	poldrack-single-stim	s635	False	0
534.296	2.879	537.175	4.942578831139098	draw_card	2.879	columbia_card_task_fmri	16.0	0.8666666666666667	89.0	-70.0	0.1333333333333333	15.0	1.0	2.0	-2.926087857835057	2.879	n/a	stim	poldrack-single-stim	s635	False	1
537.179	0.407	537.586	4.12353121209148	draw_card	0.407	columbia_card_task_fmri	16.0	0.8571428571428572	89.0	-70.0	0.1428571428571428	15.0	2.0	2.0	-2.0668170624955278	0.407	n/a	stim	poldrack-single-stim	s635	False	1
537.591	0.389	537.98	3.1784762670365336	draw_card	0.389	columbia_card_task_fmri	16.0	0.8461538461538461	89.0	-70.0	0.1538461538461538	15.0	3.0	2.0	-1.131727785818562	0.389	n/a	stim	poldrack-single-stim	s635	False	1
537.984	0.644	538.628	2.075912164472433	end_round	0.644	columbia_card_task_fmri	16.0	0.8333333333333334	71.0	-70.0	0.1666666666666666	15.0	4.0	2.0	-0.1104103622822734	0.644	3.0	stim	poldrack-single-stim	s635	False	1
539.384	1.5	538.633	n/a	-1.0	2.318	columbia_card_task_fmri	n/a	n/a	-1.0	n/a	n/a	n/a	n/a	n/a	n/a	n/a	n/a	ITI	poldrack-single-stim	s635	False	0
540.957	3.043	544.0	2.2842454978057654	end_round	3.043	columbia_card_task_fmri	8.0	0.9375	71.0	-90.0	0.0625	16.0	1.0	1.0	-8.437777904467207	3.043	0.0	stim	poldrack-single-stim	s635	False	1
544.756	1.5	544.005	n/a	-1.0	2.726	columbia_card_task_fmri	n/a	n/a	-1.0	n/a	n/a	n/a	n/a	n/a	n/a	n/a	n/a	ITI	poldrack-single-stim	s635	False	0
546.737	2.622	549.359	3.846745497805765	draw_card	2.622	columbia_card_task_fmri	10.0	0.9375	89.0	-95.0	0.0625	16.0	1.0	1.0	-6.74358298091477	2.622	n/a	stim	poldrack-single-stim	s635	False	1
549.364	0.37	549.734	3.4092454978057662	end_round	0.37	columbia_card_task_fmri	10.0	0.9333333333333332	71.0	-95.0	0.0666666666666666	16.0	2.0	1.0	-5.968531973813441	0.37	1.0	stim	poldrack-single-stim	s635	False	1
550.488	1.5	549.737	n/a	-1.0	2.386	columbia_card_task_fmri	n/a	n/a	-1.0	n/a	n/a	n/a	n/a	n/a	n/a	n/a	n/a	ITI	poldrack-single-stim	s635	False	0
552.129	1.567	553.696	4.784245497805765	draw_card	1.567	columbia_card_task_fmri	15.0	0.875	89.0	-70.0	0.125	16.0	1.0	2.0	-4.049244280728942	1.567	n/a	stim	poldrack-single-stim	s635	False	1
553.701	0.431	554.132	4.075912164472431	draw_card	0.431	columbia_card_task_fmri	15.0	0.8666666666666667	89.0	-70.0	0.1333333333333333	16.0	2.0	2.0	-3.2659887974629456	0.431	n/a	stim	poldrack-single-stim	s635	False	1
554.137	0.431	554.568	3.266388354948623	draw_card	0.431	columbia_card_task_fmri	15.0	0.8571428571428572	89.0	-70.0	0.1428571428571428	16.0	3.0	2.0	-2.416711435900641	0.431	n/a	stim	poldrack-single-stim	s635	False	1
554.573	0.652	555.225	2.332322420882687	end_round	0.652	columbia_card_task_fmri	15.0	0.8461538461538461	71.0	-70.0	0.1538461538461538	16.0	4.0	2.0	-1.4924972516650925	0.652	3.0	stim	poldrack-single-stim	s635	False	1
555.981	1.5	555.23	n/a	-1.0	2.318	columbia_card_task_fmri	n/a	n/a	-1.0	n/a	n/a	n/a	n/a	n/a	n/a	n/a	n/a	ITI	poldrack-single-stim	s635	False	0
557.553	2.752	560.305	3.784245497805765	draw_card	2.752	columbia_card_task_fmri	16.0	0.875	89.0	-85.0	0.125	16.0	1.0	2.0	1.2417864959133595	2.752	n/a	stim	poldrack-single-stim	s635	False	1
560.309	0.374	560.683	2.9425788311390986	draw_card	0.374	columbia_card_task_fmri	16.0	0.8666666666666667	89.0	-85.0	0.1333333333333333	16.0	2.0	2.0	2.172506293425293	0.374	n/a	stim	poldrack-single-stim	s635	False	1
560.688	0.972	561.66	1.980674069234338	draw_card	0.972	columbia_card_task_fmri	16.0	0.8571428571428572	89.0	-85.0	0.1428571428571428	16.0	3.0	2.0	3.181676310504507	0.972	n/a	stim	poldrack-single-stim	s635	False	1
561.664	0.703	562.367	0.870783959344225	end_round	0.703	columbia_card_task_fmri	16.0	0.8461538461538461	71.0	-85.0	0.1538461538461538	16.0	4.0	2.0	4.279889630985366	0.703	3.0	stim	poldrack-single-stim	s635	False	1
563.123	1.5	562.372	n/a	-1.0	2.25	columbia_card_task_fmri	n/a	n/a	-1.0	n/a	n/a	n/a	n/a	n/a	n/a	n/a	n/a	ITI	poldrack-single-stim	s635	False	0
