onset	duration	movement_onset	block_duration	condition	correct	correct_response	experiment_exp_id	key_press	response_time	trial_id	trial_type	worker_id	junk
3.004	0.5	3.003	0.5	AY	n/a	n/a	dot_pattern_expectancy	-1.0	n/a	cue	AY	s635	False
5.506	0.5	6.062	1.636	AY	1.0	71.0	dot_pattern_expectancy	71.0	0.556	probe	AY	s635	False
7.143	0.5	7.142	0.5	AX	n/a	n/a	dot_pattern_expectancy	-1.0	n/a	cue	AX	s635	False
9.645	0.5	10.194	1.636	AX	1.0	89.0	dot_pattern_expectancy	89.0	0.549	probe	AX	s635	False
11.283	0.5	11.282	0.5	AX	n/a	n/a	dot_pattern_expectancy	-1.0	n/a	cue	AX	s635	False
13.785	0.5	14.347	1.5	AX	1.0	89.0	dot_pattern_expectancy	89.0	0.562	probe	AX	s635	False
15.286	0.5	15.285	0.5	AX	n/a	n/a	dot_pattern_expectancy	-1.0	n/a	cue	AX	s635	False
17.788	0.5	18.775	1.5	AX	1.0	89.0	dot_pattern_expectancy	89.0	0.987	probe	AX	s635	False
19.289	0.5	19.288	0.5	AX	n/a	n/a	dot_pattern_expectancy	-1.0	n/a	cue	AX	s635	False
21.791	0.5	22.172	1.908	AX	1.0	89.0	dot_pattern_expectancy	89.0	0.381	probe	AX	s635	False
23.7	0.5	23.699	0.5	BX	n/a	n/a	dot_pattern_expectancy	-1.0	n/a	cue	BX	s635	False
26.203	0.5	26.4	1.636	BX	1.0	71.0	dot_pattern_expectancy	71.0	0.197	probe	BX	s635	False
27.84	0.5	27.839	0.5	AX	n/a	n/a	dot_pattern_expectancy	-1.0	n/a	cue	AX	s635	False
30.342	0.5	30.689	2.044	AX	1.0	89.0	dot_pattern_expectancy	89.0	0.347	probe	AX	s635	False
32.388	0.5	32.387	0.5	AX	n/a	n/a	dot_pattern_expectancy	-1.0	n/a	cue	AX	s635	False
34.891	0.5	35.294	1.772	AX	1.0	89.0	dot_pattern_expectancy	89.0	0.403	probe	AX	s635	False
36.664	0.5	36.663	0.5	AX	n/a	n/a	dot_pattern_expectancy	-1.0	n/a	cue	AX	s635	False
39.166	0.5	39.514	1.5	AX	1.0	89.0	dot_pattern_expectancy	89.0	0.348	probe	AX	s635	False
40.667	0.5	40.666	0.5	AX	n/a	n/a	dot_pattern_expectancy	-1.0	n/a	cue	AX	s635	False
43.169	0.5	43.499	2.18	AX	1.0	89.0	dot_pattern_expectancy	89.0	0.33	probe	AX	s635	False
45.351	0.5	45.35	0.5	AX	n/a	n/a	dot_pattern_expectancy	-1.0	n/a	cue	AX	s635	False
47.853	0.5	48.146	1.5	AX	1.0	89.0	dot_pattern_expectancy	89.0	0.293	probe	AX	s635	False
49.354	0.5	49.353	0.5	BX	n/a	n/a	dot_pattern_expectancy	-1.0	n/a	cue	BX	s635	False
51.857	0.5	52.054	3.676	BX	1.0	71.0	dot_pattern_expectancy	71.0	0.197	probe	BX	s635	False
55.534	0.5	55.533	0.5	BY	n/a	n/a	dot_pattern_expectancy	-1.0	n/a	cue	BY	s635	False
58.037	0.5	58.445	1.636	BY	1.0	71.0	dot_pattern_expectancy	71.0	0.408	probe	BY	s635	False
59.674	0.5	59.673	0.5	BY	n/a	n/a	dot_pattern_expectancy	-1.0	n/a	cue	BY	s635	False
62.176	0.5	62.775	1.636	BY	1.0	71.0	dot_pattern_expectancy	71.0	0.599	probe	BY	s635	False
63.814	0.5	63.813	0.5	BX	n/a	n/a	dot_pattern_expectancy	-1.0	n/a	cue	BX	s635	False
66.316	0.5	66.989	1.5	BX	0.0	71.0	dot_pattern_expectancy	89.0	0.673	probe	BX	s635	False
67.817	0.5	67.816	0.5	AX	n/a	n/a	dot_pattern_expectancy	-1.0	n/a	cue	AX	s635	False
70.319	0.5	70.878	1.908	AX	1.0	89.0	dot_pattern_expectancy	89.0	0.559	probe	AX	s635	False
72.228	0.5	72.227	0.5	AX	n/a	n/a	dot_pattern_expectancy	-1.0	n/a	cue	AX	s635	False
74.73	0.5	75.13	1.636	AX	1.0	89.0	dot_pattern_expectancy	89.0	0.4	probe	AX	s635	False
76.367	0.5	76.366	0.5	BX	n/a	n/a	dot_pattern_expectancy	-1.0	n/a	cue	BX	s635	False
78.869	0.5	79.181	1.5	BX	1.0	71.0	dot_pattern_expectancy	71.0	0.312	probe	BX	s635	False
80.37	0.5	80.369	0.5	AX	n/a	n/a	dot_pattern_expectancy	-1.0	n/a	cue	AX	s635	False
82.873	0.5	83.255	1.908	AX	1.0	89.0	dot_pattern_expectancy	89.0	0.382	probe	AX	s635	False
84.782	0.5	84.781	0.5	BY	n/a	n/a	dot_pattern_expectancy	-1.0	n/a	cue	BY	s635	False
87.284	0.5	87.612	2.18	BY	1.0	71.0	dot_pattern_expectancy	71.0	0.328	probe	BY	s635	False
89.466	0.5	89.465	0.5	AX	n/a	n/a	dot_pattern_expectancy	-1.0	n/a	cue	AX	s635	False
91.968	0.5	92.388	1.772	AX	1.0	89.0	dot_pattern_expectancy	89.0	0.42	probe	AX	s635	False
93.741	0.5	93.74	0.5	AX	n/a	n/a	dot_pattern_expectancy	-1.0	n/a	cue	AX	s635	False
96.243	0.5	96.573	1.5	AX	1.0	89.0	dot_pattern_expectancy	89.0	0.33	probe	AX	s635	False
97.744	0.5	97.743	0.5	AX	n/a	n/a	dot_pattern_expectancy	-1.0	n/a	cue	AX	s635	False
100.247	0.5	100.658	1.5	AX	1.0	89.0	dot_pattern_expectancy	89.0	0.411	probe	AX	s635	False
101.748	0.5	101.747	0.5	AX	n/a	n/a	dot_pattern_expectancy	-1.0	n/a	cue	AX	s635	False
104.25	0.5	104.605	2.044	AX	1.0	89.0	dot_pattern_expectancy	89.0	0.355	probe	AX	s635	False
106.295	0.5	106.294	0.5	AX	n/a	n/a	dot_pattern_expectancy	-1.0	n/a	cue	AX	s635	False
108.798	0.5	109.126	2.86	AX	1.0	89.0	dot_pattern_expectancy	89.0	0.328	probe	AX	s635	False
111.659	0.5	111.658	0.5	BX	n/a	n/a	dot_pattern_expectancy	-1.0	n/a	cue	BX	s635	False
114.161	0.5	114.392	1.5	BX	1.0	71.0	dot_pattern_expectancy	71.0	0.231	probe	BX	s635	False
115.662	0.5	115.661	0.5	BY	n/a	n/a	dot_pattern_expectancy	-1.0	n/a	cue	BY	s635	False
118.164	0.5	118.476	1.772	BY	1.0	71.0	dot_pattern_expectancy	71.0	0.312	probe	BY	s635	False
119.937	0.5	119.936	0.5	AX	n/a	n/a	dot_pattern_expectancy	-1.0	n/a	cue	AX	s635	False
122.439	0.5	122.795	1.772	AX	1.0	89.0	dot_pattern_expectancy	89.0	0.356	probe	AX	s635	False
124.212	0.5	124.211	0.5	AX	n/a	n/a	dot_pattern_expectancy	-1.0	n/a	cue	AX	s635	False
126.714	0.5	127.125	2.86	AX	1.0	89.0	dot_pattern_expectancy	89.0	0.411	probe	AX	s635	False
129.576	0.5	129.575	0.5	AX	n/a	n/a	dot_pattern_expectancy	-1.0	n/a	cue	AX	s635	False
132.078	0.5	132.425	1.772	AX	1.0	89.0	dot_pattern_expectancy	89.0	0.347	probe	AX	s635	False
133.852	0.5	133.851	0.5	BX	n/a	n/a	dot_pattern_expectancy	-1.0	n/a	cue	BX	s635	False
136.354	0.5	136.614	1.636	BX	1.0	71.0	dot_pattern_expectancy	71.0	0.26	probe	BX	s635	False
137.991	0.5	137.99	0.5	BX	n/a	n/a	dot_pattern_expectancy	-1.0	n/a	cue	BX	s635	False
140.493	0.5	140.975	2.452	BX	1.0	71.0	dot_pattern_expectancy	71.0	0.482	probe	BX	s635	False
142.947	0.5	142.946	0.5	AX	n/a	n/a	dot_pattern_expectancy	-1.0	n/a	cue	AX	s635	False
145.449	0.5	145.801	1.636	AX	1.0	89.0	dot_pattern_expectancy	89.0	0.352	probe	AX	s635	False
147.086	0.5	147.085	0.5	BX	n/a	n/a	dot_pattern_expectancy	-1.0	n/a	cue	BX	s635	False
149.588	0.5	149.96	1.5	BX	0.0	71.0	dot_pattern_expectancy	89.0	0.372	probe	BX	s635	False
151.089	0.5	151.088	0.5	AX	n/a	n/a	dot_pattern_expectancy	-1.0	n/a	cue	AX	s635	False
153.592	0.5	154.041	1.636	AX	1.0	89.0	dot_pattern_expectancy	89.0	0.449	probe	AX	s635	False
155.229	0.5	155.228	0.5	AX	n/a	n/a	dot_pattern_expectancy	-1.0	n/a	cue	AX	s635	False
157.731	0.5	158.081	1.636	AX	1.0	89.0	dot_pattern_expectancy	89.0	0.35	probe	AX	s635	False
159.368	0.5	159.367	0.5	BY	n/a	n/a	dot_pattern_expectancy	-1.0	n/a	cue	BY	s635	False
161.87	0.5	162.332	2.18	BY	1.0	71.0	dot_pattern_expectancy	71.0	0.462	probe	BY	s635	False
164.052	0.5	164.051	0.5	AX	n/a	n/a	dot_pattern_expectancy	-1.0	n/a	cue	AX	s635	False
166.554	0.5	166.935	1.5	AX	1.0	89.0	dot_pattern_expectancy	89.0	0.381	probe	AX	s635	False
168.056	0.5	168.055	0.5	AY	n/a	n/a	dot_pattern_expectancy	-1.0	n/a	cue	AY	s635	False
170.557	0.5	171.262	1.636	AY	1.0	71.0	dot_pattern_expectancy	71.0	0.705	probe	AY	s635	False
172.195	0.5	172.194	0.5	AX	n/a	n/a	dot_pattern_expectancy	-1.0	n/a	cue	AX	s635	False
174.696	0.5	175.215	1.636	AX	1.0	89.0	dot_pattern_expectancy	89.0	0.519	probe	AX	s635	False
186.836	0.5	186.835	0.5	AX	n/a	n/a	dot_pattern_expectancy	-1.0	n/a	cue	AX	s635	False
189.339	0.5	190.294	2.18	AX	1.0	89.0	dot_pattern_expectancy	89.0	0.955	probe	AX	s635	False
191.52	0.5	191.519	0.5	AY	n/a	n/a	dot_pattern_expectancy	-1.0	n/a	cue	AY	s635	False
194.022	0.5	194.708	2.316	AY	1.0	71.0	dot_pattern_expectancy	71.0	0.686	probe	AY	s635	False
196.339	0.5	196.338	0.5	AY	n/a	n/a	dot_pattern_expectancy	-1.0	n/a	cue	AY	s635	False
198.842	0.5	199.642	1.636	AY	1.0	71.0	dot_pattern_expectancy	71.0	0.8	probe	AY	s635	False
200.479	0.5	200.478	0.5	BX	n/a	n/a	dot_pattern_expectancy	-1.0	n/a	cue	BX	s635	False
202.981	0.5	203.381	1.908	BX	1.0	71.0	dot_pattern_expectancy	71.0	0.4	probe	BX	s635	False
204.891	0.5	204.89	0.5	AX	n/a	n/a	dot_pattern_expectancy	-1.0	n/a	cue	AX	s635	False
207.393	0.5	207.831	3.54	AX	1.0	89.0	dot_pattern_expectancy	89.0	0.438	probe	AX	s635	False
210.934	0.5	210.933	0.5	BX	n/a	n/a	dot_pattern_expectancy	-1.0	n/a	cue	BX	s635	False
213.436	0.5	213.663	1.636	BX	1.0	71.0	dot_pattern_expectancy	71.0	0.227	probe	BX	s635	False
215.073	0.5	215.072	0.5	BY	n/a	n/a	dot_pattern_expectancy	-1.0	n/a	cue	BY	s635	False
217.576	0.5	217.925	1.5	BY	1.0	71.0	dot_pattern_expectancy	71.0	0.349	probe	BY	s635	False
219.077	0.5	219.076	0.5	AX	n/a	n/a	dot_pattern_expectancy	-1.0	n/a	cue	AX	s635	False
221.579	0.5	221.895	1.5	AX	1.0	89.0	dot_pattern_expectancy	89.0	0.316	probe	AX	s635	False
223.08	0.5	223.079	0.5	AX	n/a	n/a	dot_pattern_expectancy	-1.0	n/a	cue	AX	s635	False
225.583	0.5	226.012	1.772	AX	1.0	89.0	dot_pattern_expectancy	89.0	0.429	probe	AX	s635	False
227.356	0.5	227.355	0.5	BY	n/a	n/a	dot_pattern_expectancy	-1.0	n/a	cue	BY	s635	False
229.858	0.5	230.171	2.452	BY	1.0	71.0	dot_pattern_expectancy	71.0	0.313	probe	BY	s635	False
232.312	0.5	232.311	0.5	AX	n/a	n/a	dot_pattern_expectancy	-1.0	n/a	cue	AX	s635	False
234.814	0.5	235.135	1.908	AX	1.0	89.0	dot_pattern_expectancy	89.0	0.321	probe	AX	s635	False
236.723	0.5	236.722	0.5	BX	n/a	n/a	dot_pattern_expectancy	-1.0	n/a	cue	BX	s635	False
239.225	0.5	239.504	1.636	BX	1.0	71.0	dot_pattern_expectancy	71.0	0.279	probe	BX	s635	False
240.863	0.5	240.862	0.5	AX	n/a	n/a	dot_pattern_expectancy	-1.0	n/a	cue	AX	s635	False
243.365	0.5	243.801	1.5	AX	1.0	89.0	dot_pattern_expectancy	89.0	0.436	probe	AX	s635	False
244.866	0.5	244.865	0.5	AX	n/a	n/a	dot_pattern_expectancy	-1.0	n/a	cue	AX	s635	False
247.368	0.5	247.794	1.636	AX	1.0	89.0	dot_pattern_expectancy	89.0	0.426	probe	AX	s635	False
249.005	0.5	249.004	0.5	AX	n/a	n/a	dot_pattern_expectancy	-1.0	n/a	cue	AX	s635	False
251.507	0.5	251.87	1.636	AX	1.0	89.0	dot_pattern_expectancy	89.0	0.363	probe	AX	s635	False
253.145	0.5	253.144	0.5	BY	n/a	n/a	dot_pattern_expectancy	-1.0	n/a	cue	BY	s635	False
255.647	0.5	256.007	2.452	BY	1.0	71.0	dot_pattern_expectancy	71.0	0.36	probe	BY	s635	False
258.1	0.5	258.099	0.5	AX	n/a	n/a	dot_pattern_expectancy	-1.0	n/a	cue	AX	s635	False
260.602	0.5	260.934	1.5	AX	1.0	89.0	dot_pattern_expectancy	89.0	0.332	probe	AX	s635	False
262.103	0.5	262.102	0.5	BY	n/a	n/a	dot_pattern_expectancy	-1.0	n/a	cue	BY	s635	False
264.606	0.5	265.046	1.5	BY	1.0	71.0	dot_pattern_expectancy	71.0	0.44	probe	BY	s635	False
266.107	0.5	266.106	0.5	AX	n/a	n/a	dot_pattern_expectancy	-1.0	n/a	cue	AX	s635	False
268.609	0.5	268.895	1.636	AX	1.0	89.0	dot_pattern_expectancy	89.0	0.286	probe	AX	s635	False
270.246	0.5	270.245	0.5	AX	n/a	n/a	dot_pattern_expectancy	-1.0	n/a	cue	AX	s635	False
272.748	0.5	273.256	1.636	AX	1.0	89.0	dot_pattern_expectancy	89.0	0.508	probe	AX	s635	False
274.386	0.5	274.385	0.5	AY	n/a	n/a	dot_pattern_expectancy	-1.0	n/a	cue	AY	s635	False
276.889	0.5	277.581	1.636	AY	1.0	71.0	dot_pattern_expectancy	71.0	0.692	probe	AY	s635	False
278.526	0.5	278.525	0.5	AX	n/a	n/a	dot_pattern_expectancy	-1.0	n/a	cue	AX	s635	False
281.028	0.5	281.352	1.5	AX	1.0	89.0	dot_pattern_expectancy	89.0	0.324	probe	AX	s635	False
282.53	0.5	282.529	0.5	AX	n/a	n/a	dot_pattern_expectancy	-1.0	n/a	cue	AX	s635	False
285.033	0.5	285.375	1.5	AX	1.0	89.0	dot_pattern_expectancy	89.0	0.342	probe	AX	s635	False
286.534	0.5	286.533	0.5	AX	n/a	n/a	dot_pattern_expectancy	-1.0	n/a	cue	AX	s635	False
289.037	0.5	289.355	1.772	AX	1.0	89.0	dot_pattern_expectancy	89.0	0.318	probe	AX	s635	False
290.81	0.5	290.809	0.5	AX	n/a	n/a	dot_pattern_expectancy	-1.0	n/a	cue	AX	s635	False
293.314	0.5	293.699	2.18	AX	1.0	89.0	dot_pattern_expectancy	89.0	0.385	probe	AX	s635	False
295.495	0.5	295.494	0.5	BX	n/a	n/a	dot_pattern_expectancy	-1.0	n/a	cue	BX	s635	False
297.997	0.5	298.341	1.772	BX	0.0	71.0	dot_pattern_expectancy	89.0	0.344	probe	BX	s635	False
299.771	0.5	299.77	0.5	BY	n/a	n/a	dot_pattern_expectancy	-1.0	n/a	cue	BY	s635	False
302.273	0.5	302.556	1.5	BY	0.0	71.0	dot_pattern_expectancy	89.0	0.283	probe	BY	s635	False
303.774	0.5	303.773	0.5	AX	n/a	n/a	dot_pattern_expectancy	-1.0	n/a	cue	AX	s635	False
306.276	0.5	306.6	1.5	AX	1.0	89.0	dot_pattern_expectancy	89.0	0.324	probe	AX	s635	False
307.778	0.5	307.777	0.5	AX	n/a	n/a	dot_pattern_expectancy	-1.0	n/a	cue	AX	s635	False
310.28	0.5	310.659	1.636	AX	1.0	89.0	dot_pattern_expectancy	89.0	0.379	probe	AX	s635	False
311.918	0.5	311.917	0.5	AY	n/a	n/a	dot_pattern_expectancy	-1.0	n/a	cue	AY	s635	False
314.42	0.5	315.003	2.18	AY	1.0	71.0	dot_pattern_expectancy	71.0	0.583	probe	AY	s635	False
316.601	0.5	316.6	0.5	AY	n/a	n/a	dot_pattern_expectancy	-1.0	n/a	cue	AY	s635	False
319.103	0.5	319.712	2.316	AY	1.0	71.0	dot_pattern_expectancy	71.0	0.609	probe	AY	s635	False
321.42	0.5	321.419	0.5	BX	n/a	n/a	dot_pattern_expectancy	-1.0	n/a	cue	BX	s635	False
323.923	0.5	324.513	1.636	BX	1.0	71.0	dot_pattern_expectancy	71.0	0.59	probe	BX	s635	False
325.56	0.5	325.559	0.5	BX	n/a	n/a	dot_pattern_expectancy	-1.0	n/a	cue	BX	s635	False
328.062	0.5	328.388	2.18	BX	1.0	71.0	dot_pattern_expectancy	71.0	0.326	probe	BX	s635	False
330.243	0.5	330.242	0.5	AY	n/a	n/a	dot_pattern_expectancy	-1.0	n/a	cue	AY	s635	False
332.745	0.5	333.407	2.044	AY	1.0	71.0	dot_pattern_expectancy	71.0	0.662	probe	AY	s635	False
334.79	0.5	334.789	0.5	AX	n/a	n/a	dot_pattern_expectancy	-1.0	n/a	cue	AX	s635	False
337.293	0.5	337.493	1.772	AX	0.0	89.0	dot_pattern_expectancy	71.0	0.2	probe	AX	s635	False
339.066	0.5	339.065	0.5	AX	n/a	n/a	dot_pattern_expectancy	-1.0	n/a	cue	AX	s635	False
341.569	0.5	342.134	1.5	AX	1.0	89.0	dot_pattern_expectancy	89.0	0.565	probe	AX	s635	False
343.07	0.5	343.069	0.5	AX	n/a	n/a	dot_pattern_expectancy	-1.0	n/a	cue	AX	s635	False
345.572	0.5	345.84	2.18	AX	1.0	89.0	dot_pattern_expectancy	89.0	0.268	probe	AX	s635	False
347.754	0.5	347.753	0.5	AY	n/a	n/a	dot_pattern_expectancy	-1.0	n/a	cue	AY	s635	False
350.255	0.5	350.865	2.452	AY	1.0	71.0	dot_pattern_expectancy	71.0	0.61	probe	AY	s635	False
352.71	0.5	352.709	0.5	AX	n/a	n/a	dot_pattern_expectancy	-1.0	n/a	cue	AX	s635	False
355.212	0.5	355.611	1.636	AX	1.0	89.0	dot_pattern_expectancy	89.0	0.399	probe	AX	s635	False
356.849	0.5	356.848	0.5	AX	n/a	n/a	dot_pattern_expectancy	-1.0	n/a	cue	AX	s635	False
359.351	0.5	359.694	1.908	AX	1.0	89.0	dot_pattern_expectancy	89.0	0.343	probe	AX	s635	False
371.763	0.5	371.762	0.5	AX	n/a	n/a	dot_pattern_expectancy	-1.0	n/a	cue	AX	s635	False
374.265	0.5	374.841	1.772	AX	1.0	89.0	dot_pattern_expectancy	89.0	0.576	probe	AX	s635	False
376.039	0.5	376.038	0.5	AX	n/a	n/a	dot_pattern_expectancy	-1.0	n/a	cue	AX	s635	False
378.542	0.5	378.954	1.5	AX	1.0	89.0	dot_pattern_expectancy	89.0	0.412	probe	AX	s635	False
380.043	0.5	380.042	0.5	AY	n/a	n/a	dot_pattern_expectancy	-1.0	n/a	cue	AY	s635	False
382.545	0.5	383.309	2.452	AY	1.0	71.0	dot_pattern_expectancy	71.0	0.764	probe	AY	s635	False
384.998	0.5	384.997	0.5	AY	n/a	n/a	dot_pattern_expectancy	-1.0	n/a	cue	AY	s635	False
387.5	0.5	388.095	1.772	AY	1.0	71.0	dot_pattern_expectancy	71.0	0.595	probe	AY	s635	False
389.273	0.5	389.272	0.5	AX	n/a	n/a	dot_pattern_expectancy	-1.0	n/a	cue	AX	s635	False
391.776	0.5	391.983	1.908	AX	1.0	89.0	dot_pattern_expectancy	89.0	0.207	probe	AX	s635	False
393.686	0.5	393.685	0.5	AX	n/a	n/a	dot_pattern_expectancy	-1.0	n/a	cue	AX	s635	False
396.189	0.5	396.639	1.908	AX	1.0	89.0	dot_pattern_expectancy	89.0	0.45	probe	AX	s635	False
398.098	0.5	398.097	0.5	AX	n/a	n/a	dot_pattern_expectancy	-1.0	n/a	cue	AX	s635	False
400.6	0.5	400.933	2.588	AX	1.0	89.0	dot_pattern_expectancy	89.0	0.333	probe	AX	s635	False
403.189	0.5	403.188	0.5	AY	n/a	n/a	dot_pattern_expectancy	-1.0	n/a	cue	AY	s635	False
405.691	0.5	406.305	1.5	AY	1.0	71.0	dot_pattern_expectancy	71.0	0.614	probe	AY	s635	False
407.193	0.5	407.192	0.5	BY	n/a	n/a	dot_pattern_expectancy	-1.0	n/a	cue	BY	s635	False
409.695	0.5	410.036	1.5	BY	1.0	71.0	dot_pattern_expectancy	71.0	0.341	probe	BY	s635	False
411.196	0.5	411.195	0.5	BY	n/a	n/a	dot_pattern_expectancy	-1.0	n/a	cue	BY	s635	False
413.698	0.5	414.076	1.5	BY	1.0	71.0	dot_pattern_expectancy	71.0	0.378	probe	BY	s635	False
415.199	0.5	415.198	0.5	AX	n/a	n/a	dot_pattern_expectancy	-1.0	n/a	cue	AX	s635	False
417.701	0.5	418.01	1.636	AX	1.0	89.0	dot_pattern_expectancy	89.0	0.309	probe	AX	s635	False
419.339	0.5	419.338	0.5	BX	n/a	n/a	dot_pattern_expectancy	-1.0	n/a	cue	BX	s635	False
421.841	0.5	422.377	2.044	BX	0.0	71.0	dot_pattern_expectancy	89.0	0.536	probe	BX	s635	False
423.886	0.5	423.885	0.5	AX	n/a	n/a	dot_pattern_expectancy	-1.0	n/a	cue	AX	s635	False
426.389	0.5	426.649	1.772	AX	1.0	89.0	dot_pattern_expectancy	89.0	0.26	probe	AX	s635	False
428.163	0.5	428.162	0.5	BX	n/a	n/a	dot_pattern_expectancy	-1.0	n/a	cue	BX	s635	False
430.665	0.5	430.967	2.588	BX	1.0	71.0	dot_pattern_expectancy	71.0	0.302	probe	BX	s635	False
433.254	0.5	433.253	0.5	AY	n/a	n/a	dot_pattern_expectancy	-1.0	n/a	cue	AY	s635	False
435.756	0.5	436.568	1.5	AY	1.0	71.0	dot_pattern_expectancy	71.0	0.812	probe	AY	s635	False
437.257	0.5	437.256	0.5	AX	n/a	n/a	dot_pattern_expectancy	-1.0	n/a	cue	AX	s635	False
439.759	0.5	440.108	2.452	AX	1.0	89.0	dot_pattern_expectancy	89.0	0.349	probe	AX	s635	False
442.213	0.5	442.212	0.5	BY	n/a	n/a	dot_pattern_expectancy	-1.0	n/a	cue	BY	s635	False
444.715	0.5	445.025	1.636	BY	1.0	71.0	dot_pattern_expectancy	71.0	0.31	probe	BY	s635	False
446.353	0.5	446.352	0.5	AX	n/a	n/a	dot_pattern_expectancy	-1.0	n/a	cue	AX	s635	False
448.855	0.5	449.294	1.636	AX	1.0	89.0	dot_pattern_expectancy	89.0	0.439	probe	AX	s635	False
450.492	0.5	450.491	0.5	AX	n/a	n/a	dot_pattern_expectancy	-1.0	n/a	cue	AX	s635	False
452.994	0.5	453.696	1.5	AX	1.0	89.0	dot_pattern_expectancy	89.0	0.702	probe	AX	s635	False
454.495	0.5	454.494	0.5	BY	n/a	n/a	dot_pattern_expectancy	-1.0	n/a	cue	BY	s635	False
456.997	0.5	457.77	1.636	BY	1.0	71.0	dot_pattern_expectancy	71.0	0.773	probe	BY	s635	False
458.635	0.5	458.634	0.5	AX	n/a	n/a	dot_pattern_expectancy	-1.0	n/a	cue	AX	s635	False
461.137	0.5	461.489	1.5	AX	1.0	89.0	dot_pattern_expectancy	89.0	0.352	probe	AX	s635	False
462.638	0.5	462.637	0.5	AY	n/a	n/a	dot_pattern_expectancy	-1.0	n/a	cue	AY	s635	False
465.14	0.5	465.436	2.18	AY	0.0	71.0	dot_pattern_expectancy	89.0	0.296	probe	AY	s635	False
467.322	0.5	467.321	0.5	AX	n/a	n/a	dot_pattern_expectancy	-1.0	n/a	cue	AX	s635	False
469.824	0.5	470.225	1.5	AX	1.0	89.0	dot_pattern_expectancy	89.0	0.401	probe	AX	s635	False
471.325	0.5	471.324	0.5	AX	n/a	n/a	dot_pattern_expectancy	-1.0	n/a	cue	AX	s635	False
473.827	0.5	474.487	1.908	AX	1.0	89.0	dot_pattern_expectancy	89.0	0.66	probe	AX	s635	False
475.737	0.5	475.736	0.5	BY	n/a	n/a	dot_pattern_expectancy	-1.0	n/a	cue	BY	s635	False
478.238	0.5	478.721	1.636	BY	1.0	71.0	dot_pattern_expectancy	71.0	0.483	probe	BY	s635	False
479.876	0.5	479.875	0.5	BY	n/a	n/a	dot_pattern_expectancy	-1.0	n/a	cue	BY	s635	False
482.378	0.5	482.925	1.636	BY	1.0	71.0	dot_pattern_expectancy	71.0	0.547	probe	BY	s635	False
484.015	0.5	484.014	0.5	AX	n/a	n/a	dot_pattern_expectancy	-1.0	n/a	cue	AX	s635	False
486.518	0.5	486.846	1.636	AX	1.0	89.0	dot_pattern_expectancy	89.0	0.328	probe	AX	s635	False
488.156	0.5	488.155	0.5	AX	n/a	n/a	dot_pattern_expectancy	-1.0	n/a	cue	AX	s635	False
490.658	0.5	491.069	1.5	AX	1.0	89.0	dot_pattern_expectancy	89.0	0.411	probe	AX	s635	False
492.159	0.5	492.158	0.5	BY	n/a	n/a	dot_pattern_expectancy	-1.0	n/a	cue	BY	s635	False
494.662	0.5	495.18	2.044	BY	1.0	71.0	dot_pattern_expectancy	71.0	0.518	probe	BY	s635	False
496.707	0.5	496.706	0.5	AY	n/a	n/a	dot_pattern_expectancy	-1.0	n/a	cue	AY	s635	False
499.209	0.5	499.875	2.18	AY	1.0	71.0	dot_pattern_expectancy	71.0	0.666	probe	AY	s635	False
501.39	0.5	501.389	0.5	AY	n/a	n/a	dot_pattern_expectancy	-1.0	n/a	cue	AY	s635	False
503.892	0.5	504.331	1.636	AY	1.0	71.0	dot_pattern_expectancy	71.0	0.439	probe	AY	s635	False
505.529	0.5	505.528	0.5	AY	n/a	n/a	dot_pattern_expectancy	-1.0	n/a	cue	AY	s635	False
508.032	0.5	508.589	1.772	AY	1.0	71.0	dot_pattern_expectancy	71.0	0.557	probe	AY	s635	False
509.805	0.5	509.804	0.5	BY	n/a	n/a	dot_pattern_expectancy	-1.0	n/a	cue	BY	s635	False
512.307	0.5	512.812	1.5	BY	1.0	71.0	dot_pattern_expectancy	71.0	0.505	probe	BY	s635	False
513.808	0.5	513.807	0.5	BX	n/a	n/a	dot_pattern_expectancy	-1.0	n/a	cue	BX	s635	False
516.31	0.5	516.705	1.908	BX	1.0	71.0	dot_pattern_expectancy	71.0	0.395	probe	BX	s635	False
518.22	0.5	518.219	0.5	AX	n/a	n/a	dot_pattern_expectancy	-1.0	n/a	cue	AX	s635	False
520.722	0.5	521.504	2.044	AX	1.0	89.0	dot_pattern_expectancy	89.0	0.782	probe	AX	s635	False
522.768	0.5	522.767	0.5	AX	n/a	n/a	dot_pattern_expectancy	-1.0	n/a	cue	AX	s635	False
525.27	0.5	525.803	1.636	AX	1.0	89.0	dot_pattern_expectancy	89.0	0.533	probe	AX	s635	False
526.907	0.5	526.906	0.5	AX	n/a	n/a	dot_pattern_expectancy	-1.0	n/a	cue	AX	s635	False
529.409	0.5	530.116	1.772	AX	1.0	89.0	dot_pattern_expectancy	89.0	0.707	probe	AX	s635	False
531.182	0.5	531.181	0.5	AX	n/a	n/a	dot_pattern_expectancy	-1.0	n/a	cue	AX	s635	False
533.685	0.5	534.127	1.636	AX	1.0	89.0	dot_pattern_expectancy	89.0	0.442	probe	AX	s635	False
535.322	0.5	535.321	0.5	BX	n/a	n/a	dot_pattern_expectancy	-1.0	n/a	cue	BX	s635	False
537.825	0.5	538.196	1.772	BX	1.0	71.0	dot_pattern_expectancy	71.0	0.371	probe	BX	s635	False
539.598	0.5	539.597	0.5	AX	n/a	n/a	dot_pattern_expectancy	-1.0	n/a	cue	AX	s635	False
542.1	0.5	542.33	1.5	AX	1.0	89.0	dot_pattern_expectancy	89.0	0.23	probe	AX	s635	False
554.104	0.5	554.103	0.5	BY	n/a	n/a	dot_pattern_expectancy	-1.0	n/a	cue	BY	s635	False
556.606	0.5	557.19	1.636	BY	1.0	71.0	dot_pattern_expectancy	71.0	0.584	probe	BY	s635	False
558.243	0.5	558.242	0.5	AY	n/a	n/a	dot_pattern_expectancy	-1.0	n/a	cue	AY	s635	False
560.746	0.5	561.275	1.5	AY	1.0	71.0	dot_pattern_expectancy	71.0	0.529	probe	AY	s635	False
562.247	0.5	562.246	0.5	AX	n/a	n/a	dot_pattern_expectancy	-1.0	n/a	cue	AX	s635	False
564.749	0.5	565.248	2.044	AX	1.0	89.0	dot_pattern_expectancy	89.0	0.499	probe	AX	s635	False
566.794	0.5	566.793	0.5	BY	n/a	n/a	dot_pattern_expectancy	-1.0	n/a	cue	BY	s635	False
569.296	0.5	569.882	1.772	BY	1.0	71.0	dot_pattern_expectancy	71.0	0.586	probe	BY	s635	False
571.07	0.5	571.069	0.5	BX	n/a	n/a	dot_pattern_expectancy	-1.0	n/a	cue	BX	s635	False
573.572	0.5	573.813	1.636	BX	1.0	71.0	dot_pattern_expectancy	71.0	0.241	probe	BX	s635	False
575.209	0.5	575.208	0.5	AX	n/a	n/a	dot_pattern_expectancy	-1.0	n/a	cue	AX	s635	False
577.711	0.5	578.36	1.636	AX	1.0	89.0	dot_pattern_expectancy	89.0	0.649	probe	AX	s635	False
579.348	0.5	579.347	0.5	AX	n/a	n/a	dot_pattern_expectancy	-1.0	n/a	cue	AX	s635	False
581.85	0.5	582.282	1.5	AX	1.0	89.0	dot_pattern_expectancy	89.0	0.432	probe	AX	s635	False
583.352	0.5	583.351	0.5	AX	n/a	n/a	dot_pattern_expectancy	-1.0	n/a	cue	AX	s635	False
585.854	0.5	586.126	1.5	AX	1.0	89.0	dot_pattern_expectancy	89.0	0.272	probe	AX	s635	False
587.355	0.5	587.354	0.5	AY	n/a	n/a	dot_pattern_expectancy	-1.0	n/a	cue	AY	s635	False
589.857	0.5	590.474	2.044	AY	1.0	71.0	dot_pattern_expectancy	71.0	0.617	probe	AY	s635	False
591.902	0.5	591.901	0.5	AX	n/a	n/a	dot_pattern_expectancy	-1.0	n/a	cue	AX	s635	False
594.404	0.5	594.92	2.452	AX	1.0	89.0	dot_pattern_expectancy	89.0	0.516	probe	AX	s635	False
596.858	0.5	596.857	0.5	AX	n/a	n/a	dot_pattern_expectancy	-1.0	n/a	cue	AX	s635	False
599.361	0.5	599.722	1.908	AX	1.0	89.0	dot_pattern_expectancy	89.0	0.361	probe	AX	s635	False
601.27	0.5	601.269	0.5	AX	n/a	n/a	dot_pattern_expectancy	-1.0	n/a	cue	AX	s635	False
603.772	0.5	604.148	1.5	AX	1.0	89.0	dot_pattern_expectancy	89.0	0.376	probe	AX	s635	False
605.273	0.5	605.272	0.5	AX	n/a	n/a	dot_pattern_expectancy	-1.0	n/a	cue	AX	s635	False
607.775	0.5	608.116	1.908	AX	1.0	89.0	dot_pattern_expectancy	89.0	0.341	probe	AX	s635	False
609.685	0.5	609.684	0.5	BX	n/a	n/a	dot_pattern_expectancy	-1.0	n/a	cue	BX	s635	False
612.187	0.5	612.498	2.18	BX	1.0	71.0	dot_pattern_expectancy	71.0	0.311	probe	BX	s635	False
614.369	0.5	614.368	0.5	AX	n/a	n/a	dot_pattern_expectancy	-1.0	n/a	cue	AX	s635	False
616.871	0.5	617.26	1.5	AX	1.0	89.0	dot_pattern_expectancy	89.0	0.389	probe	AX	s635	False
618.373	0.5	618.372	0.5	BY	n/a	n/a	dot_pattern_expectancy	-1.0	n/a	cue	BY	s635	False
620.875	0.5	621.216	1.908	BY	1.0	71.0	dot_pattern_expectancy	71.0	0.341	probe	BY	s635	False
622.784	0.5	622.783	0.5	BX	n/a	n/a	dot_pattern_expectancy	-1.0	n/a	cue	BX	s635	False
625.287	0.5	625.757	2.316	BX	1.0	71.0	dot_pattern_expectancy	71.0	0.47	probe	BX	s635	False
627.604	0.5	627.603	0.5	AY	n/a	n/a	dot_pattern_expectancy	-1.0	n/a	cue	AY	s635	False
630.106	0.5	630.987	2.316	AY	1.0	71.0	dot_pattern_expectancy	71.0	0.881	probe	AY	s635	False
632.423	0.5	632.422	0.5	BX	n/a	n/a	dot_pattern_expectancy	-1.0	n/a	cue	BX	s635	False
634.926	0.5	635.234	1.636	BX	1.0	71.0	dot_pattern_expectancy	71.0	0.308	probe	BX	s635	False
636.563	0.5	636.562	0.5	AY	n/a	n/a	dot_pattern_expectancy	-1.0	n/a	cue	AY	s635	False
639.065	0.5	639.379	1.5	AY	0.0	71.0	dot_pattern_expectancy	89.0	0.314	probe	AY	s635	False
640.566	0.5	640.565	0.5	BY	n/a	n/a	dot_pattern_expectancy	-1.0	n/a	cue	BY	s635	False
643.069	0.5	643.894	1.908	BY	1.0	71.0	dot_pattern_expectancy	71.0	0.825	probe	BY	s635	False
644.979	0.5	644.978	0.5	AX	n/a	n/a	dot_pattern_expectancy	-1.0	n/a	cue	AX	s635	False
647.481	0.5	647.912	1.5	AX	1.0	89.0	dot_pattern_expectancy	89.0	0.431	probe	AX	s635	False
648.982	0.5	648.981	0.5	AY	n/a	n/a	dot_pattern_expectancy	-1.0	n/a	cue	AY	s635	False
651.485	0.5	652.263	2.316	AY	1.0	71.0	dot_pattern_expectancy	71.0	0.778	probe	AY	s635	False
653.802	0.5	653.801	0.5	AX	n/a	n/a	dot_pattern_expectancy	-1.0	n/a	cue	AX	s635	False
656.305	0.5	656.983	1.5	AX	1.0	89.0	dot_pattern_expectancy	89.0	0.678	probe	AX	s635	False
657.806	0.5	657.805	0.5	AY	n/a	n/a	dot_pattern_expectancy	-1.0	n/a	cue	AY	s635	False
660.308	0.5	661.002	2.724	AY	1.0	71.0	dot_pattern_expectancy	71.0	0.694	probe	AY	s635	False
663.034	0.5	663.033	0.5	AX	n/a	n/a	dot_pattern_expectancy	-1.0	n/a	cue	AX	s635	False
665.535	0.5	666.102	1.5	AX	1.0	89.0	dot_pattern_expectancy	89.0	0.567	probe	AX	s635	False
667.037	0.5	667.036	0.5	AX	n/a	n/a	dot_pattern_expectancy	-1.0	n/a	cue	AX	s635	False
669.539	0.5	669.843	1.636	AX	1.0	89.0	dot_pattern_expectancy	89.0	0.304	probe	AX	s635	False
671.176	0.5	671.175	0.5	AX	n/a	n/a	dot_pattern_expectancy	-1.0	n/a	cue	AX	s635	False
673.678	0.5	674.139	1.636	AX	1.0	89.0	dot_pattern_expectancy	89.0	0.461	probe	AX	s635	False
675.315	0.5	675.314	0.5	AX	n/a	n/a	dot_pattern_expectancy	-1.0	n/a	cue	AX	s635	False
677.818	0.5	678.195	1.772	AX	1.0	89.0	dot_pattern_expectancy	89.0	0.377	probe	AX	s635	False
679.591	0.5	679.59	0.5	BY	n/a	n/a	dot_pattern_expectancy	-1.0	n/a	cue	BY	s635	False
682.093	0.5	682.407	1.772	BY	1.0	71.0	dot_pattern_expectancy	71.0	0.314	probe	BY	s635	False
683.867	0.5	683.866	0.5	AX	n/a	n/a	dot_pattern_expectancy	-1.0	n/a	cue	AX	s635	False
686.37	0.5	686.732	1.5	AX	1.0	89.0	dot_pattern_expectancy	89.0	0.362	probe	AX	s635	False
687.871	0.5	687.87	0.5	BY	n/a	n/a	dot_pattern_expectancy	-1.0	n/a	cue	BY	s635	False
690.374	0.5	690.681	2.452	BY	1.0	71.0	dot_pattern_expectancy	71.0	0.307	probe	BY	s635	False
692.827	0.5	692.826	0.5	AX	n/a	n/a	dot_pattern_expectancy	-1.0	n/a	cue	AX	s635	False
695.33	0.5	695.594	1.636	AX	1.0	89.0	dot_pattern_expectancy	89.0	0.264	probe	AX	s635	False
696.967	0.5	696.966	0.5	AX	n/a	n/a	dot_pattern_expectancy	-1.0	n/a	cue	AX	s635	False
699.469	0.5	700.133	1.636	AX	1.0	89.0	dot_pattern_expectancy	89.0	0.664	probe	AX	s635	False
701.106	0.5	701.105	0.5	BX	n/a	n/a	dot_pattern_expectancy	-1.0	n/a	cue	BX	s635	False
703.609	0.5	704.341	1.5	BX	1.0	71.0	dot_pattern_expectancy	71.0	0.732	probe	BX	s635	False
705.11	0.5	705.109	0.5	BX	n/a	n/a	dot_pattern_expectancy	-1.0	n/a	cue	BX	s635	False
707.612	0.5	708.118	1.5	BX	0.0	71.0	dot_pattern_expectancy	89.0	0.506	probe	BX	s635	False
709.113	0.5	709.112	0.5	AX	n/a	n/a	dot_pattern_expectancy	-1.0	n/a	cue	AX	s635	False
711.615	0.5	712.064	2.316	AX	1.0	89.0	dot_pattern_expectancy	89.0	0.449	probe	AX	s635	False
713.933	0.5	713.932	0.5	AY	n/a	n/a	dot_pattern_expectancy	-1.0	n/a	cue	AY	s635	False
716.435	0.5	717.256	2.044	AY	1.0	71.0	dot_pattern_expectancy	71.0	0.821	probe	AY	s635	False
718.481	0.5	718.48	0.5	AX	n/a	n/a	dot_pattern_expectancy	-1.0	n/a	cue	AX	s635	False
720.983	0.5	721.347	3.948	AX	1.0	89.0	dot_pattern_expectancy	89.0	0.364	probe	AX	s635	False
724.932	0.5	724.931	0.5	AX	n/a	n/a	dot_pattern_expectancy	-1.0	n/a	cue	AX	s635	False
727.435	0.5	727.951	1.636	AX	1.0	89.0	dot_pattern_expectancy	89.0	0.516	probe	AX	s635	False
