onset	duration	movement_onset	CTI	block_duration	correct	correct_response	cue	cue_switch	experiment_exp_id	key_press	response_time	stim_color	stim_number	switch_type	task	task_switch	trial_id	trial_type	worker_id	first_trial_of_block	junk
3.608	1.0	4.86	0.1	2.136	True	89.0	Orange-Blue	switch	twobytwo	89.0	1.152	blue	2.0	cue_switch	color	stay	stim	poldrack-single-stim	s635	1	False
6.647	1.0	8.052	0.9	2.272	True	89.0	High-Low	n/a	twobytwo	89.0	0.505	blue	1.0	task_switch	magnitude	switch	stim	poldrack-single-stim	s635	0	False
9.022	1.0	10.036	0.1	2.136	False	71.0	Orange-Blue	n/a	twobytwo	89.0	0.914	orange	2.0	task_switch	color	switch	stim	poldrack-single-stim	s635	0	False
12.062	1.0	13.576	0.9	2.272	True	89.0	Orange-Blue	stay	twobytwo	89.0	0.614	blue	1.0	cue_stay	color	stay	stim	poldrack-single-stim	s635	0	False
15.236	1.0	16.639	0.9	2.0	True	71.0	Magnitude	n/a	twobytwo	71.0	0.503	orange	8.0	task_switch	magnitude	switch	stim	poldrack-single-stim	s635	0	False
18.139	1.0	19.558	0.9	2.816	True	71.0	Magnitude	stay	twobytwo	71.0	0.519	blue	7.0	cue_stay	magnitude	stay	stim	poldrack-single-stim	s635	0	False
21.058	1.0	22.039	0.1	2.408	True	71.0	High-Low	switch	twobytwo	71.0	0.881	blue	8.0	cue_switch	magnitude	stay	stim	poldrack-single-stim	s635	0	False
24.369	1.0	25.711	0.9	2.0	True	71.0	High-Low	stay	twobytwo	71.0	0.442	blue	9.0	cue_stay	magnitude	stay	stim	poldrack-single-stim	s635	0	False
27.271	1.0	28.726	0.9	2.544	True	71.0	High-Low	stay	twobytwo	71.0	0.555	orange	6.0	cue_stay	magnitude	stay	stim	poldrack-single-stim	s635	0	False
30.718	1.0	32.043	0.9	2.136	True	71.0	Orange-Blue	n/a	twobytwo	71.0	0.425	orange	8.0	task_switch	color	switch	stim	poldrack-single-stim	s635	0	False
32.957	1.0	33.976	0.1	2.0	True	89.0	High-Low	n/a	twobytwo	89.0	0.919	blue	1.0	task_switch	magnitude	switch	stim	poldrack-single-stim	s635	0	False
35.06	1.0	36.111	0.1	2.0	True	71.0	High-Low	stay	twobytwo	71.0	0.951	orange	6.0	cue_stay	magnitude	stay	stim	poldrack-single-stim	s635	0	False
37.963	1.0	39.99	0.9	2.136	True	89.0	Magnitude	switch	twobytwo	89.0	1.127	orange	4.0	cue_switch	magnitude	stay	stim	poldrack-single-stim	s635	0	False
41.002	1.0	42.599	0.9	2.136	True	71.0	Magnitude	stay	twobytwo	71.0	0.697	orange	9.0	cue_stay	magnitude	stay	stim	poldrack-single-stim	s635	0	False
43.241	1.0	44.188	0.1	2.272	False	89.0	Orange-Blue	n/a	twobytwo	71.0	0.847	blue	6.0	task_switch	color	switch	stim	poldrack-single-stim	s635	0	False
45.615	1.0	47.235	0.1	3.224	True	89.0	Color	switch	twobytwo	89.0	1.52	blue	9.0	cue_switch	color	stay	stim	poldrack-single-stim	s635	0	False
48.942	1.0	49.745	0.1	2.0	True	89.0	Orange-Blue	switch	twobytwo	89.0	0.703	blue	8.0	cue_switch	color	stay	stim	poldrack-single-stim	s635	0	False
51.844	1.0	53.46	0.9	2.0	True	71.0	High-Low	n/a	twobytwo	71.0	0.716	blue	9.0	task_switch	magnitude	switch	stim	poldrack-single-stim	s635	0	False
54.746	1.0	56.53	0.9	2.272	False	89.0	Color	n/a	twobytwo	71.0	0.884	blue	9.0	task_switch	color	switch	stim	poldrack-single-stim	s635	0	False
57.922	1.0	60.036	0.9	2.136	True	89.0	Magnitude	n/a	twobytwo	89.0	1.214	orange	3.0	task_switch	magnitude	switch	stim	poldrack-single-stim	s635	0	False
60.96	1.0	62.509	0.9	2.0	True	71.0	High-Low	switch	twobytwo	71.0	0.649	orange	7.0	cue_switch	magnitude	stay	stim	poldrack-single-stim	s635	0	False
63.063	1.0	64.212	0.1	2.0	True	89.0	High-Low	stay	twobytwo	89.0	1.049	orange	2.0	cue_stay	magnitude	stay	stim	poldrack-single-stim	s635	0	False
65.965	1.0	67.609	0.9	2.0	True	89.0	High-Low	stay	twobytwo	89.0	0.744	blue	2.0	cue_stay	magnitude	stay	stim	poldrack-single-stim	s635	0	False
68.068	1.0	69.035	0.1	2.68	True	89.0	High-Low	stay	twobytwo	89.0	0.867	blue	3.0	cue_stay	magnitude	stay	stim	poldrack-single-stim	s635	0	False
71.65	1.0	73.307	0.9	2.0	True	89.0	Orange-Blue	n/a	twobytwo	89.0	0.757	blue	3.0	task_switch	color	switch	stim	poldrack-single-stim	s635	0	False
74.552	1.0	76.095	0.9	2.272	True	89.0	High-Low	n/a	twobytwo	89.0	0.643	blue	2.0	task_switch	magnitude	switch	stim	poldrack-single-stim	s635	0	False
77.727	1.0	79.282	0.9	2.0	True	89.0	Color	n/a	twobytwo	89.0	0.655	blue	2.0	task_switch	color	switch	stim	poldrack-single-stim	s635	0	False
80.629	1.0	82.197	0.9	2.272	True	89.0	Orange-Blue	switch	twobytwo	89.0	0.668	blue	2.0	cue_switch	color	stay	stim	poldrack-single-stim	s635	0	False
83.004	1.0	84.017	0.1	2.952	True	71.0	Color	switch	twobytwo	71.0	0.913	orange	7.0	cue_switch	color	stay	stim	poldrack-single-stim	s635	0	False
86.858	1.0	88.507	0.9	2.0	True	89.0	Magnitude	n/a	twobytwo	89.0	0.749	blue	3.0	task_switch	magnitude	switch	stim	poldrack-single-stim	s635	0	False
88.961	1.0	90.193	0.1	2.0	True	71.0	High-Low	switch	twobytwo	71.0	1.132	orange	8.0	cue_switch	magnitude	stay	stim	poldrack-single-stim	s635	0	False
91.863	1.0	93.429	0.9	2.0	True	89.0	Orange-Blue	n/a	twobytwo	89.0	0.666	blue	8.0	task_switch	color	switch	stim	poldrack-single-stim	s635	0	False
94.766	1.0	94.765	0.9	2.0	False	89.0	Orange-Blue	stay	twobytwo	-1.0	n/a	blue	4.0	cue_stay	color	stay	stim	poldrack-single-stim	s635	0	False
96.868	1.0	97.965	0.1	2.136	True	71.0	Color	switch	twobytwo	71.0	0.997	orange	1.0	cue_switch	color	stay	stim	poldrack-single-stim	s635	0	False
99.107	1.0	100.082	0.1	2.0	True	71.0	High-Low	n/a	twobytwo	71.0	0.875	blue	9.0	task_switch	magnitude	switch	stim	poldrack-single-stim	s635	0	False
102.009	1.0	103.74	0.9	2.0	True	71.0	Color	n/a	twobytwo	71.0	0.831	orange	7.0	task_switch	color	switch	stim	poldrack-single-stim	s635	0	False
104.912	1.0	106.346	0.9	2.0	True	71.0	Orange-Blue	switch	twobytwo	71.0	0.534	orange	6.0	cue_switch	color	stay	stim	poldrack-single-stim	s635	0	False
107.015	1.0	107.867	0.1	2.272	True	89.0	High-Low	n/a	twobytwo	89.0	0.752	blue	2.0	task_switch	magnitude	switch	stim	poldrack-single-stim	s635	0	False
110.189	1.0	111.783	0.9	2.136	True	89.0	Color	n/a	twobytwo	89.0	0.694	blue	3.0	task_switch	color	switch	stim	poldrack-single-stim	s635	0	False
113.228	1.0	114.658	0.9	2.0	True	89.0	High-Low	n/a	twobytwo	89.0	0.53	blue	3.0	task_switch	magnitude	switch	stim	poldrack-single-stim	s635	0	False
116.131	1.0	117.542	0.9	2.136	True	71.0	Orange-Blue	n/a	twobytwo	71.0	0.511	orange	8.0	task_switch	color	switch	stim	poldrack-single-stim	s635	0	False
119.169	1.0	121.142	0.9	2.816	True	71.0	High-Low	n/a	twobytwo	71.0	1.073	orange	7.0	task_switch	magnitude	switch	stim	poldrack-single-stim	s635	0	False
122.088	1.0	122.945	0.1	2.408	True	71.0	Magnitude	switch	twobytwo	71.0	0.757	orange	7.0	cue_switch	magnitude	stay	stim	poldrack-single-stim	s635	0	False
124.599	1.0	124.598	0.1	2.0	False	89.0	Color	n/a	twobytwo	-1.0	n/a	blue	1.0	task_switch	color	switch	stim	poldrack-single-stim	s635	0	False
126.701	1.0	126.7	0.1	2.136	False	89.0	Magnitude	n/a	twobytwo	-1.0	n/a	orange	2.0	task_switch	magnitude	switch	stim	poldrack-single-stim	s635	0	False
128.942	1.0	128.941	0.1	2.136	False	71.0	Magnitude	stay	twobytwo	-1.0	n/a	blue	7.0	cue_stay	magnitude	stay	stim	poldrack-single-stim	s635	0	False
131.18	1.0	132.169	0.1	2.136	True	71.0	High-Low	switch	twobytwo	71.0	0.889	blue	7.0	cue_switch	magnitude	stay	stim	poldrack-single-stim	s635	0	False
134.219	1.0	135.778	0.9	2.544	False	89.0	Orange-Blue	n/a	twobytwo	71.0	0.659	blue	9.0	task_switch	color	switch	stim	poldrack-single-stim	s635	0	False
136.866	1.0	137.79	0.1	2.136	True	89.0	Magnitude	n/a	twobytwo	89.0	0.824	blue	2.0	task_switch	magnitude	switch	stim	poldrack-single-stim	s635	0	False
139.904	1.0	141.875	0.9	2.0	True	89.0	Color	n/a	twobytwo	89.0	1.071	blue	3.0	task_switch	color	switch	stim	poldrack-single-stim	s635	0	False
142.006	1.0	142.005	0.1	2.0	False	89.0	High-Low	n/a	twobytwo	-1.0	n/a	blue	1.0	task_switch	magnitude	switch	stim	poldrack-single-stim	s635	0	False
144.91	1.0	146.413	0.9	2.0	True	71.0	High-Low	stay	twobytwo	71.0	0.603	blue	8.0	cue_stay	magnitude	stay	stim	poldrack-single-stim	s635	0	False
147.013	1.0	148.173	0.1	2.0	True	89.0	Orange-Blue	n/a	twobytwo	89.0	1.06	blue	8.0	task_switch	color	switch	stim	poldrack-single-stim	s635	0	False
149.115	1.0	150.399	0.1	2.136	True	89.0	High-Low	n/a	twobytwo	89.0	1.184	orange	2.0	task_switch	magnitude	switch	stim	poldrack-single-stim	s635	0	False
151.354	1.0	151.353	0.1	2.0	False	71.0	Magnitude	switch	twobytwo	-1.0	n/a	blue	8.0	cue_switch	magnitude	stay	stim	poldrack-single-stim	s635	0	False
154.257	1.0	156.694	0.9	2.0	True	71.0	High-Low	switch	twobytwo	71.0	1.537	orange	9.0	cue_switch	magnitude	stay	stim	poldrack-single-stim	s635	0	False
156.36	1.0	157.655	0.1	2.0	True	71.0	High-Low	stay	twobytwo	71.0	1.195	blue	7.0	cue_stay	magnitude	stay	stim	poldrack-single-stim	s635	0	False
159.263	1.0	159.262	0.9	2.136	False	71.0	Color	n/a	twobytwo	-1.0	n/a	orange	2.0	task_switch	color	switch	stim	poldrack-single-stim	s635	0	False
162.302	1.0	162.301	0.9	2.136	False	71.0	Magnitude	n/a	twobytwo	-1.0	n/a	orange	7.0	task_switch	magnitude	switch	stim	poldrack-single-stim	s635	0	False
165.34	1.0	166.826	0.9	2.136	True	71.0	Magnitude	stay	twobytwo	71.0	0.586	orange	7.0	cue_stay	magnitude	stay	stim	poldrack-single-stim	s635	0	False
167.579	1.0	167.578	0.1	2.136	False	89.0	Color	n/a	twobytwo	-1.0	n/a	blue	1.0	task_switch	color	switch	stim	poldrack-single-stim	s635	0	False
170.618	1.0	172.127	0.9	2.68	False	89.0	Color	stay	twobytwo	71.0	0.609	blue	9.0	cue_stay	color	stay	stim	poldrack-single-stim	s635	0	False
174.201	1.0	175.956	0.9	2.544	True	89.0	Orange-Blue	switch	twobytwo	89.0	0.855	blue	3.0	cue_switch	color	stay	stim	poldrack-single-stim	s635	0	False
177.648	1.0	180.001	0.9	2.272	True	89.0	Color	switch	twobytwo	89.0	1.453	blue	1.0	cue_switch	color	stay	stim	poldrack-single-stim	s635	0	False
180.823	1.0	182.498	0.9	2.272	True	89.0	Orange-Blue	switch	twobytwo	89.0	0.775	blue	7.0	cue_switch	color	stay	stim	poldrack-single-stim	s635	0	False
183.197	1.0	183.196	0.1	2.408	False	89.0	Magnitude	n/a	twobytwo	-1.0	n/a	blue	4.0	task_switch	magnitude	switch	stim	poldrack-single-stim	s635	0	False
186.508	1.0	186.507	0.9	2.136	False	89.0	Magnitude	stay	twobytwo	-1.0	n/a	orange	1.0	cue_stay	magnitude	stay	stim	poldrack-single-stim	s635	0	False
188.748	1.0	188.747	0.1	2.272	False	89.0	Orange-Blue	n/a	twobytwo	-1.0	n/a	blue	3.0	task_switch	color	switch	stim	poldrack-single-stim	s635	0	False
191.922	1.0	193.756	0.9	2.0	True	71.0	Color	switch	twobytwo	71.0	0.934	orange	6.0	cue_switch	color	stay	stim	poldrack-single-stim	s635	0	False
194.825	1.0	194.824	0.9	2.136	False	89.0	Orange-Blue	switch	twobytwo	-1.0	n/a	blue	2.0	cue_switch	color	stay	stim	poldrack-single-stim	s635	0	False
197.865	1.0	199.64	0.9	2.272	True	71.0	Orange-Blue	stay	twobytwo	71.0	0.875	orange	2.0	cue_stay	color	stay	stim	poldrack-single-stim	s635	0	False
200.24	1.0	201.617	0.1	2.0	True	89.0	Magnitude	n/a	twobytwo	89.0	1.277	blue	4.0	task_switch	magnitude	switch	stim	poldrack-single-stim	s635	0	False
203.143	1.0	205.625	0.9	2.68	True	71.0	Orange-Blue	n/a	twobytwo	71.0	1.582	orange	3.0	task_switch	color	switch	stim	poldrack-single-stim	s635	0	False
206.726	1.0	206.725	0.9	2.0	False	89.0	Color	switch	twobytwo	-1.0	n/a	blue	7.0	cue_switch	color	stay	stim	poldrack-single-stim	s635	0	False
208.828	1.0	208.827	0.1	2.0	False	71.0	Magnitude	n/a	twobytwo	-1.0	n/a	orange	9.0	task_switch	magnitude	switch	stim	poldrack-single-stim	s635	0	False
210.931	1.0	211.692	0.1	2.0	True	71.0	Magnitude	stay	twobytwo	71.0	0.661	blue	9.0	cue_stay	magnitude	stay	stim	poldrack-single-stim	s635	0	False
213.033	1.0	213.901	0.1	2.272	False	71.0	Orange-Blue	n/a	twobytwo	89.0	0.768	orange	2.0	task_switch	color	switch	stim	poldrack-single-stim	s635	0	False
216.208	1.0	216.207	0.9	2.0	False	89.0	Magnitude	n/a	twobytwo	-1.0	n/a	blue	4.0	task_switch	magnitude	switch	stim	poldrack-single-stim	s635	0	False
219.111	1.0	219.11	0.9	2.0	False	89.0	Orange-Blue	n/a	twobytwo	-1.0	n/a	blue	1.0	task_switch	color	switch	stim	poldrack-single-stim	s635	0	False
222.014	1.0	223.536	0.9	2.0	True	89.0	Magnitude	n/a	twobytwo	89.0	0.622	blue	4.0	task_switch	magnitude	switch	stim	poldrack-single-stim	s635	0	False
237.622	1.0	239.091	0.1	2.68	True	89.0	Orange-Blue	switch	twobytwo	89.0	1.369	blue	2.0	cue_switch	color	stay	stim	poldrack-single-stim	s635	1	False
241.205	1.0	242.581	0.9	2.0	True	89.0	High-Low	n/a	twobytwo	89.0	0.476	blue	1.0	task_switch	magnitude	switch	stim	poldrack-single-stim	s635	0	False
243.307	1.0	244.515	0.1	2.136	True	71.0	Orange-Blue	n/a	twobytwo	71.0	1.108	orange	2.0	task_switch	color	switch	stim	poldrack-single-stim	s635	0	False
246.346	1.0	247.801	0.9	2.408	True	89.0	Orange-Blue	stay	twobytwo	89.0	0.555	blue	1.0	cue_stay	color	stay	stim	poldrack-single-stim	s635	0	False
249.657	1.0	251.24	0.9	2.136	True	71.0	Magnitude	n/a	twobytwo	71.0	0.683	orange	8.0	task_switch	magnitude	switch	stim	poldrack-single-stim	s635	0	False
252.695	1.0	254.538	0.9	2.0	True	71.0	Magnitude	stay	twobytwo	71.0	0.943	blue	7.0	cue_stay	magnitude	stay	stim	poldrack-single-stim	s635	0	False
254.798	1.0	255.668	0.1	2.0	True	71.0	High-Low	switch	twobytwo	71.0	0.77	blue	8.0	cue_switch	magnitude	stay	stim	poldrack-single-stim	s635	0	False
257.7	1.0	259.169	0.9	2.544	True	71.0	High-Low	stay	twobytwo	71.0	0.569	blue	9.0	cue_stay	magnitude	stay	stim	poldrack-single-stim	s635	0	False
261.147	1.0	262.846	0.9	2.136	True	71.0	High-Low	stay	twobytwo	71.0	0.799	orange	6.0	cue_stay	magnitude	stay	stim	poldrack-single-stim	s635	0	False
264.185	1.0	265.732	0.9	2.544	False	71.0	Orange-Blue	n/a	twobytwo	89.0	0.647	orange	8.0	task_switch	color	switch	stim	poldrack-single-stim	s635	0	False
266.832	1.0	266.831	0.1	2.68	False	89.0	Magnitude	n/a	twobytwo	-1.0	n/a	blue	1.0	task_switch	magnitude	switch	stim	poldrack-single-stim	s635	0	False
269.615	1.0	269.614	0.1	2.0	False	71.0	Magnitude	stay	twobytwo	-1.0	n/a	orange	6.0	cue_stay	magnitude	stay	stim	poldrack-single-stim	s635	0	False
272.518	1.0	272.517	0.9	2.272	False	89.0	High-Low	switch	twobytwo	-1.0	n/a	orange	4.0	cue_switch	magnitude	stay	stim	poldrack-single-stim	s635	0	False
275.692	1.0	277.055	0.9	3.088	True	71.0	High-Low	stay	twobytwo	71.0	0.463	orange	9.0	cue_stay	magnitude	stay	stim	poldrack-single-stim	s635	0	False
278.883	1.0	278.882	0.1	2.0	False	89.0	Color	n/a	twobytwo	-1.0	n/a	blue	6.0	task_switch	color	switch	stim	poldrack-single-stim	s635	0	False
280.986	1.0	280.985	0.1	2.136	False	89.0	Orange-Blue	switch	twobytwo	-1.0	n/a	blue	9.0	cue_switch	color	stay	stim	poldrack-single-stim	s635	0	False
283.225	1.0	284.286	0.1	2.136	True	89.0	Color	switch	twobytwo	89.0	0.961	blue	8.0	cue_switch	color	stay	stim	poldrack-single-stim	s635	0	False
286.264	1.0	286.263	0.9	2.0	False	71.0	High-Low	n/a	twobytwo	-1.0	n/a	blue	9.0	task_switch	magnitude	switch	stim	poldrack-single-stim	s635	0	False
289.167	1.0	289.166	0.9	2.272	False	89.0	Orange-Blue	n/a	twobytwo	-1.0	n/a	blue	9.0	task_switch	color	switch	stim	poldrack-single-stim	s635	0	False
292.342	1.0	294.079	0.9	2.0	True	89.0	Magnitude	n/a	twobytwo	89.0	0.837	orange	3.0	task_switch	magnitude	switch	stim	poldrack-single-stim	s635	0	False
295.244	1.0	296.92	0.9	2.136	True	71.0	High-Low	switch	twobytwo	71.0	0.776	orange	7.0	cue_switch	magnitude	stay	stim	poldrack-single-stim	s635	0	False
297.483	1.0	297.482	0.1	2.136	False	89.0	High-Low	stay	twobytwo	-1.0	n/a	orange	2.0	cue_stay	magnitude	stay	stim	poldrack-single-stim	s635	0	False
300.521	1.0	300.52	0.9	2.544	False	89.0	High-Low	stay	twobytwo	-1.0	n/a	blue	2.0	cue_stay	magnitude	stay	stim	poldrack-single-stim	s635	0	False
303.169	1.0	303.884	0.1	2.0	True	89.0	High-Low	stay	twobytwo	89.0	0.615	blue	3.0	cue_stay	magnitude	stay	stim	poldrack-single-stim	s635	0	False
306.071	1.0	306.07	0.9	2.136	False	89.0	Orange-Blue	n/a	twobytwo	-1.0	n/a	blue	3.0	task_switch	color	switch	stim	poldrack-single-stim	s635	0	False
309.11	1.0	309.109	0.9	2.136	False	89.0	High-Low	n/a	twobytwo	-1.0	n/a	blue	2.0	task_switch	magnitude	switch	stim	poldrack-single-stim	s635	0	False
312.149	1.0	312.148	0.9	2.136	False	89.0	Orange-Blue	n/a	twobytwo	-1.0	n/a	blue	2.0	task_switch	color	switch	stim	poldrack-single-stim	s635	0	False
315.187	1.0	316.833	0.9	2.0	True	89.0	Color	switch	twobytwo	89.0	0.746	blue	2.0	cue_switch	color	stay	stim	poldrack-single-stim	s635	0	False
317.29	1.0	318.505	0.1	2.136	True	71.0	Orange-Blue	switch	twobytwo	71.0	1.115	orange	7.0	cue_switch	color	stay	stim	poldrack-single-stim	s635	0	False
320.329	1.0	320.328	0.9	2.0	False	89.0	High-Low	n/a	twobytwo	-1.0	n/a	blue	3.0	task_switch	magnitude	switch	stim	poldrack-single-stim	s635	0	False
322.432	1.0	322.431	0.1	2.136	False	71.0	Magnitude	switch	twobytwo	-1.0	n/a	orange	8.0	cue_switch	magnitude	stay	stim	poldrack-single-stim	s635	0	False
325.47	1.0	327.194	0.9	2.816	True	89.0	Color	n/a	twobytwo	89.0	0.824	blue	8.0	task_switch	color	switch	stim	poldrack-single-stim	s635	0	False
329.189	1.0	329.188	0.9	2.136	False	89.0	Color	stay	twobytwo	-1.0	n/a	blue	4.0	cue_stay	color	stay	stim	poldrack-single-stim	s635	0	False
331.428	1.0	331.427	0.1	2.0	False	71.0	Orange-Blue	switch	twobytwo	-1.0	n/a	orange	1.0	cue_switch	color	stay	stim	poldrack-single-stim	s635	0	False
333.531	1.0	333.53	0.1	2.0	False	71.0	High-Low	n/a	twobytwo	-1.0	n/a	blue	9.0	task_switch	magnitude	switch	stim	poldrack-single-stim	s635	0	False
336.434	1.0	338.147	0.9	2.272	True	71.0	Orange-Blue	n/a	twobytwo	71.0	0.813	orange	7.0	task_switch	color	switch	stim	poldrack-single-stim	s635	0	False
339.608	1.0	341.307	0.9	2.0	True	71.0	Color	switch	twobytwo	71.0	0.799	orange	6.0	cue_switch	color	stay	stim	poldrack-single-stim	s635	0	False
341.711	1.0	343.397	0.1	2.0	True	89.0	High-Low	n/a	twobytwo	89.0	1.586	blue	2.0	task_switch	magnitude	switch	stim	poldrack-single-stim	s635	0	False
344.614	1.0	344.613	0.9	2.0	False	89.0	Color	n/a	twobytwo	-1.0	n/a	blue	3.0	task_switch	color	switch	stim	poldrack-single-stim	s635	0	False
347.516	1.0	347.515	0.9	2.408	False	89.0	Magnitude	n/a	twobytwo	-1.0	n/a	blue	3.0	task_switch	magnitude	switch	stim	poldrack-single-stim	s635	0	False
350.827	1.0	350.826	0.9	2.272	False	71.0	Orange-Blue	n/a	twobytwo	-1.0	n/a	orange	8.0	task_switch	color	switch	stim	poldrack-single-stim	s635	0	False
354.002	1.0	354.001	0.9	2.136	False	71.0	Magnitude	n/a	twobytwo	-1.0	n/a	orange	7.0	task_switch	magnitude	switch	stim	poldrack-single-stim	s635	0	False
356.241	1.0	356.24	0.1	2.0	False	71.0	High-Low	switch	twobytwo	-1.0	n/a	orange	7.0	cue_switch	magnitude	stay	stim	poldrack-single-stim	s635	0	False
358.344	1.0	358.343	0.1	2.0	False	89.0	Color	n/a	twobytwo	-1.0	n/a	blue	1.0	task_switch	color	switch	stim	poldrack-single-stim	s635	0	False
360.446	1.0	360.445	0.1	2.136	False	89.0	Magnitude	n/a	twobytwo	-1.0	n/a	orange	2.0	task_switch	magnitude	switch	stim	poldrack-single-stim	s635	0	False
362.685	1.0	362.684	0.1	2.0	False	71.0	Magnitude	stay	twobytwo	-1.0	n/a	blue	7.0	cue_stay	magnitude	stay	stim	poldrack-single-stim	s635	0	False
364.788	1.0	364.787	0.1	2.136	False	71.0	High-Low	switch	twobytwo	-1.0	n/a	blue	7.0	cue_switch	magnitude	stay	stim	poldrack-single-stim	s635	0	False
367.826	1.0	367.825	0.9	2.408	False	89.0	Orange-Blue	n/a	twobytwo	-1.0	n/a	blue	9.0	task_switch	color	switch	stim	poldrack-single-stim	s635	0	False
370.337	1.0	370.336	0.1	2.136	False	89.0	Magnitude	n/a	twobytwo	-1.0	n/a	blue	2.0	task_switch	magnitude	switch	stim	poldrack-single-stim	s635	0	False
373.376	1.0	373.375	0.9	2.0	False	89.0	Color	n/a	twobytwo	-1.0	n/a	blue	3.0	task_switch	color	switch	stim	poldrack-single-stim	s635	0	False
375.478	1.0	375.477	0.1	2.136	False	89.0	Magnitude	n/a	twobytwo	-1.0	n/a	blue	1.0	task_switch	magnitude	switch	stim	poldrack-single-stim	s635	0	False
378.517	1.0	378.516	0.9	2.272	False	71.0	Magnitude	stay	twobytwo	-1.0	n/a	blue	8.0	cue_stay	magnitude	stay	stim	poldrack-single-stim	s635	0	False
380.892	1.0	380.891	0.1	2.0	False	89.0	Orange-Blue	n/a	twobytwo	-1.0	n/a	blue	8.0	task_switch	color	switch	stim	poldrack-single-stim	s635	0	False
382.994	1.0	382.993	0.1	2.408	False	89.0	Magnitude	n/a	twobytwo	-1.0	n/a	orange	2.0	task_switch	magnitude	switch	stim	poldrack-single-stim	s635	0	False
385.505	1.0	385.504	0.1	2.0	False	71.0	High-Low	switch	twobytwo	-1.0	n/a	blue	8.0	cue_switch	magnitude	stay	stim	poldrack-single-stim	s635	0	False
388.408	1.0	388.407	0.9	2.136	False	71.0	Magnitude	switch	twobytwo	-1.0	n/a	orange	9.0	cue_switch	magnitude	stay	stim	poldrack-single-stim	s635	0	False
390.647	1.0	390.646	0.1	2.408	False	71.0	Magnitude	stay	twobytwo	-1.0	n/a	blue	7.0	cue_stay	magnitude	stay	stim	poldrack-single-stim	s635	0	False
393.958	1.0	393.957	0.9	2.136	False	71.0	Orange-Blue	n/a	twobytwo	-1.0	n/a	orange	2.0	task_switch	color	switch	stim	poldrack-single-stim	s635	0	False
396.996	1.0	396.995	0.9	2.408	False	71.0	High-Low	n/a	twobytwo	-1.0	n/a	orange	7.0	task_switch	magnitude	switch	stim	poldrack-single-stim	s635	0	False
400.307	1.0	400.306	0.9	2.136	False	71.0	High-Low	stay	twobytwo	-1.0	n/a	orange	7.0	cue_stay	magnitude	stay	stim	poldrack-single-stim	s635	0	False
402.546	1.0	402.545	0.1	2.0	False	89.0	Color	n/a	twobytwo	-1.0	n/a	blue	1.0	task_switch	color	switch	stim	poldrack-single-stim	s635	0	False
405.448	1.0	405.447	0.9	2.272	False	89.0	Color	stay	twobytwo	-1.0	n/a	blue	9.0	cue_stay	color	stay	stim	poldrack-single-stim	s635	0	False
408.623	1.0	408.622	0.9	2.0	False	89.0	Orange-Blue	switch	twobytwo	-1.0	n/a	blue	3.0	cue_switch	color	stay	stim	poldrack-single-stim	s635	0	False
411.526	1.0	411.525	0.9	2.272	False	89.0	Color	switch	twobytwo	-1.0	n/a	blue	1.0	cue_switch	color	stay	stim	poldrack-single-stim	s635	0	False
414.701	1.0	414.7	0.9	2.272	False	89.0	Orange-Blue	switch	twobytwo	-1.0	n/a	blue	7.0	cue_switch	color	stay	stim	poldrack-single-stim	s635	0	False
417.075	1.0	417.074	0.1	2.952	False	89.0	Magnitude	n/a	twobytwo	-1.0	n/a	blue	4.0	task_switch	magnitude	switch	stim	poldrack-single-stim	s635	0	False
420.931	1.0	420.93	0.9	2.68	False	89.0	Magnitude	stay	twobytwo	-1.0	n/a	orange	1.0	cue_stay	magnitude	stay	stim	poldrack-single-stim	s635	0	False
423.713	1.0	423.712	0.1	2.136	False	89.0	Orange-Blue	n/a	twobytwo	-1.0	n/a	blue	3.0	task_switch	color	switch	stim	poldrack-single-stim	s635	0	False
426.752	1.0	426.751	0.9	2.272	False	71.0	Color	switch	twobytwo	-1.0	n/a	orange	6.0	cue_switch	color	stay	stim	poldrack-single-stim	s635	0	False
429.927	1.0	429.926	0.9	2.272	False	89.0	Orange-Blue	switch	twobytwo	-1.0	n/a	blue	2.0	cue_switch	color	stay	stim	poldrack-single-stim	s635	0	False
433.101	1.0	433.1	0.9	2.136	False	71.0	Orange-Blue	stay	twobytwo	-1.0	n/a	orange	2.0	cue_stay	color	stay	stim	poldrack-single-stim	s635	0	False
435.34	1.0	435.339	0.1	2.408	False	89.0	Magnitude	n/a	twobytwo	-1.0	n/a	blue	4.0	task_switch	magnitude	switch	stim	poldrack-single-stim	s635	0	False
438.651	1.0	438.65	0.9	2.136	False	71.0	Color	n/a	twobytwo	-1.0	n/a	orange	3.0	task_switch	color	switch	stim	poldrack-single-stim	s635	0	False
441.69	1.0	441.689	0.9	2.136	False	89.0	Orange-Blue	switch	twobytwo	-1.0	n/a	blue	7.0	cue_switch	color	stay	stim	poldrack-single-stim	s635	0	False
443.929	1.0	443.928	0.1	2.0	False	71.0	High-Low	n/a	twobytwo	-1.0	n/a	orange	9.0	task_switch	magnitude	switch	stim	poldrack-single-stim	s635	0	False
446.032	1.0	446.031	0.1	2.0	False	71.0	High-Low	stay	twobytwo	-1.0	n/a	blue	9.0	cue_stay	magnitude	stay	stim	poldrack-single-stim	s635	0	False
448.135	1.0	448.134	0.1	2.0	False	71.0	Orange-Blue	n/a	twobytwo	-1.0	n/a	orange	2.0	task_switch	color	switch	stim	poldrack-single-stim	s635	0	False
451.038	1.0	451.037	0.9	2.0	False	89.0	Magnitude	n/a	twobytwo	-1.0	n/a	blue	4.0	task_switch	magnitude	switch	stim	poldrack-single-stim	s635	0	False
453.942	1.0	453.941	0.9	2.0	False	89.0	Color	n/a	twobytwo	-1.0	n/a	blue	1.0	task_switch	color	switch	stim	poldrack-single-stim	s635	0	False
456.845	1.0	456.844	0.9	2.272	False	89.0	Magnitude	n/a	twobytwo	-1.0	n/a	blue	4.0	task_switch	magnitude	switch	stim	poldrack-single-stim	s635	0	False
472.724	1.0	472.723	0.1	2.408	False	89.0	Orange-Blue	switch	twobytwo	-1.0	n/a	blue	2.0	cue_switch	color	stay	stim	poldrack-single-stim	s635	1	False
476.035	1.0	476.034	0.9	2.0	False	89.0	High-Low	n/a	twobytwo	-1.0	n/a	blue	1.0	task_switch	magnitude	switch	stim	poldrack-single-stim	s635	0	False
478.138	1.0	478.137	0.1	2.136	False	71.0	Orange-Blue	n/a	twobytwo	-1.0	n/a	orange	2.0	task_switch	color	switch	stim	poldrack-single-stim	s635	0	False
481.177	1.0	481.176	0.9	2.0	False	89.0	Orange-Blue	stay	twobytwo	-1.0	n/a	blue	1.0	cue_stay	color	stay	stim	poldrack-single-stim	s635	0	False
484.079	1.0	484.078	0.9	2.136	False	71.0	High-Low	n/a	twobytwo	-1.0	n/a	orange	8.0	task_switch	magnitude	switch	stim	poldrack-single-stim	s635	0	False
487.119	1.0	487.118	0.9	2.544	False	71.0	High-Low	stay	twobytwo	-1.0	n/a	blue	7.0	cue_stay	magnitude	stay	stim	poldrack-single-stim	s635	0	False
489.765	1.0	489.764	0.1	2.68	False	71.0	Magnitude	switch	twobytwo	-1.0	n/a	blue	8.0	cue_switch	magnitude	stay	stim	poldrack-single-stim	s635	0	False
493.349	1.0	493.348	0.9	3.088	False	71.0	Magnitude	stay	twobytwo	-1.0	n/a	blue	9.0	cue_stay	magnitude	stay	stim	poldrack-single-stim	s635	0	False
497.34	1.0	497.339	0.9	2.136	False	71.0	Magnitude	stay	twobytwo	-1.0	n/a	orange	6.0	cue_stay	magnitude	stay	stim	poldrack-single-stim	s635	0	False
500.378	1.0	502.359	0.9	2.544	True	71.0	Color	n/a	twobytwo	71.0	1.081	orange	8.0	task_switch	color	switch	stim	poldrack-single-stim	s635	0	False
503.025	1.0	504.375	0.1	2.0	True	89.0	Magnitude	n/a	twobytwo	89.0	1.25	blue	1.0	task_switch	magnitude	switch	stim	poldrack-single-stim	s635	0	False
505.128	1.0	506.487	0.1	2.136	True	71.0	Magnitude	stay	twobytwo	71.0	1.259	orange	6.0	cue_stay	magnitude	stay	stim	poldrack-single-stim	s635	0	False
508.166	1.0	509.951	0.9	2.0	True	89.0	High-Low	switch	twobytwo	89.0	0.885	orange	4.0	cue_switch	magnitude	stay	stim	poldrack-single-stim	s635	0	False
511.069	1.0	512.65	0.9	2.408	True	71.0	High-Low	stay	twobytwo	71.0	0.681	orange	9.0	cue_stay	magnitude	stay	stim	poldrack-single-stim	s635	0	False
513.58	1.0	514.9	0.1	2.0	True	89.0	Orange-Blue	n/a	twobytwo	89.0	1.22	blue	6.0	task_switch	color	switch	stim	poldrack-single-stim	s635	0	False
515.684	1.0	516.825	0.1	2.0	True	89.0	Color	switch	twobytwo	89.0	1.041	blue	9.0	cue_switch	color	stay	stim	poldrack-single-stim	s635	0	False
517.787	1.0	518.807	0.1	2.0	True	89.0	Orange-Blue	switch	twobytwo	89.0	0.92	blue	8.0	cue_switch	color	stay	stim	poldrack-single-stim	s635	0	False
520.69	1.0	521.987	0.9	2.68	True	71.0	High-Low	n/a	twobytwo	71.0	0.397	blue	9.0	task_switch	magnitude	switch	stim	poldrack-single-stim	s635	0	False
524.273	1.0	525.82	0.9	2.272	False	89.0	Orange-Blue	n/a	twobytwo	71.0	0.647	blue	9.0	task_switch	color	switch	stim	poldrack-single-stim	s635	0	False
527.447	1.0	527.446	0.9	2.408	False	89.0	High-Low	n/a	twobytwo	-1.0	n/a	orange	3.0	task_switch	magnitude	switch	stim	poldrack-single-stim	s635	0	False
530.758	1.0	530.757	0.9	3.224	False	71.0	Magnitude	switch	twobytwo	-1.0	n/a	orange	7.0	cue_switch	magnitude	stay	stim	poldrack-single-stim	s635	0	False
534.085	1.0	534.901	0.1	2.408	True	89.0	Magnitude	stay	twobytwo	89.0	0.716	orange	2.0	cue_stay	magnitude	stay	stim	poldrack-single-stim	s635	0	False
537.396	1.0	538.752	0.9	2.816	True	89.0	Magnitude	stay	twobytwo	89.0	0.456	blue	2.0	cue_stay	magnitude	stay	stim	poldrack-single-stim	s635	0	False
540.315	1.0	541.01	0.1	2.408	True	89.0	Magnitude	stay	twobytwo	89.0	0.595	blue	3.0	cue_stay	magnitude	stay	stim	poldrack-single-stim	s635	0	False
543.625	1.0	545.063	0.9	2.136	True	89.0	Orange-Blue	n/a	twobytwo	89.0	0.538	blue	3.0	task_switch	color	switch	stim	poldrack-single-stim	s635	0	False
546.664	1.0	548.732	0.9	2.136	True	89.0	Magnitude	n/a	twobytwo	89.0	1.168	blue	2.0	task_switch	magnitude	switch	stim	poldrack-single-stim	s635	0	False
549.704	1.0	551.326	0.9	2.0	True	89.0	Orange-Blue	n/a	twobytwo	89.0	0.722	blue	2.0	task_switch	color	switch	stim	poldrack-single-stim	s635	0	False
552.607	1.0	552.606	0.9	2.0	False	89.0	Color	switch	twobytwo	-1.0	n/a	blue	2.0	cue_switch	color	stay	stim	poldrack-single-stim	s635	0	False
554.71	1.0	554.709	0.1	2.272	False	71.0	Orange-Blue	switch	twobytwo	-1.0	n/a	orange	7.0	cue_switch	color	stay	stim	poldrack-single-stim	s635	0	False
557.885	1.0	557.884	0.9	2.408	False	89.0	Magnitude	n/a	twobytwo	-1.0	n/a	blue	3.0	task_switch	magnitude	switch	stim	poldrack-single-stim	s635	0	False
560.396	1.0	560.395	0.1	2.0	False	71.0	High-Low	switch	twobytwo	-1.0	n/a	orange	8.0	cue_switch	magnitude	stay	stim	poldrack-single-stim	s635	0	False
563.298	1.0	563.297	0.9	2.136	False	89.0	Color	n/a	twobytwo	-1.0	n/a	blue	8.0	task_switch	color	switch	stim	poldrack-single-stim	s635	0	False
566.337	1.0	566.336	0.9	2.0	False	89.0	Color	stay	twobytwo	-1.0	n/a	blue	4.0	cue_stay	color	stay	stim	poldrack-single-stim	s635	0	False
568.44	1.0	568.439	0.1	2.408	False	71.0	Orange-Blue	switch	twobytwo	-1.0	n/a	orange	1.0	cue_switch	color	stay	stim	poldrack-single-stim	s635	0	False
570.951	1.0	570.95	0.1	2.272	False	71.0	Magnitude	n/a	twobytwo	-1.0	n/a	blue	9.0	task_switch	magnitude	switch	stim	poldrack-single-stim	s635	0	False
574.127	1.0	576.313	0.9	2.0	True	71.0	Orange-Blue	n/a	twobytwo	71.0	1.286	orange	7.0	task_switch	color	switch	stim	poldrack-single-stim	s635	0	False
577.029	1.0	578.858	0.9	2.272	True	71.0	Color	switch	twobytwo	71.0	0.929	orange	6.0	cue_switch	color	stay	stim	poldrack-single-stim	s635	0	False
579.404	1.0	579.403	0.1	2.0	False	89.0	Magnitude	n/a	twobytwo	-1.0	n/a	blue	2.0	task_switch	magnitude	switch	stim	poldrack-single-stim	s635	0	False
582.307	1.0	582.306	0.9	2.0	False	89.0	Orange-Blue	n/a	twobytwo	-1.0	n/a	blue	3.0	task_switch	color	switch	stim	poldrack-single-stim	s635	0	False
585.21	1.0	585.209	0.9	2.272	False	89.0	Magnitude	n/a	twobytwo	-1.0	n/a	blue	3.0	task_switch	magnitude	switch	stim	poldrack-single-stim	s635	0	False
588.386	1.0	590.103	0.9	2.136	True	71.0	Orange-Blue	n/a	twobytwo	71.0	0.817	orange	8.0	task_switch	color	switch	stim	poldrack-single-stim	s635	0	False
591.426	1.0	593.032	0.9	2.0	True	71.0	High-Low	n/a	twobytwo	71.0	0.706	orange	7.0	task_switch	magnitude	switch	stim	poldrack-single-stim	s635	0	False
593.529	1.0	593.528	0.1	2.0	False	71.0	Magnitude	switch	twobytwo	-1.0	n/a	orange	7.0	cue_switch	magnitude	stay	stim	poldrack-single-stim	s635	0	False
595.631	1.0	595.63	0.1	2.0	False	89.0	Orange-Blue	n/a	twobytwo	-1.0	n/a	blue	1.0	task_switch	color	switch	stim	poldrack-single-stim	s635	0	False
597.734	1.0	597.733	0.1	2.0	False	89.0	Magnitude	n/a	twobytwo	-1.0	n/a	orange	2.0	task_switch	magnitude	switch	stim	poldrack-single-stim	s635	0	False
599.838	1.0	599.837	0.1	2.0	False	71.0	Magnitude	stay	twobytwo	-1.0	n/a	blue	7.0	cue_stay	magnitude	stay	stim	poldrack-single-stim	s635	0	False
601.94	1.0	601.939	0.1	2.136	False	71.0	High-Low	switch	twobytwo	-1.0	n/a	blue	7.0	cue_switch	magnitude	stay	stim	poldrack-single-stim	s635	0	False
604.979	1.0	604.978	0.9	2.0	False	89.0	Color	n/a	twobytwo	-1.0	n/a	blue	9.0	task_switch	color	switch	stim	poldrack-single-stim	s635	0	False
607.082	1.0	607.081	0.1	2.0	False	89.0	High-Low	n/a	twobytwo	-1.0	n/a	blue	2.0	task_switch	magnitude	switch	stim	poldrack-single-stim	s635	0	False
609.985	1.0	611.613	0.9	2.136	True	89.0	Orange-Blue	n/a	twobytwo	89.0	0.728	blue	3.0	task_switch	color	switch	stim	poldrack-single-stim	s635	0	False
612.224	1.0	613.256	0.1	2.0	True	89.0	Magnitude	n/a	twobytwo	89.0	0.932	blue	1.0	task_switch	magnitude	switch	stim	poldrack-single-stim	s635	0	False
615.127	1.0	616.986	0.9	2.136	True	71.0	Magnitude	stay	twobytwo	71.0	0.959	blue	8.0	cue_stay	magnitude	stay	stim	poldrack-single-stim	s635	0	False
617.365	1.0	617.364	0.1	2.68	False	89.0	Color	n/a	twobytwo	-1.0	n/a	blue	8.0	task_switch	color	switch	stim	poldrack-single-stim	s635	0	False
620.149	1.0	620.148	0.1	2.272	False	89.0	Magnitude	n/a	twobytwo	-1.0	n/a	orange	2.0	task_switch	magnitude	switch	stim	poldrack-single-stim	s635	0	False
622.524	1.0	624.028	0.1	2.136	True	71.0	High-Low	switch	twobytwo	71.0	1.404	blue	8.0	cue_switch	magnitude	stay	stim	poldrack-single-stim	s635	0	False
625.563	1.0	627.104	0.9	2.0	True	71.0	Magnitude	switch	twobytwo	71.0	0.641	orange	9.0	cue_switch	magnitude	stay	stim	poldrack-single-stim	s635	0	False
627.665	1.0	627.664	0.1	2.136	False	71.0	Magnitude	stay	twobytwo	-1.0	n/a	blue	7.0	cue_stay	magnitude	stay	stim	poldrack-single-stim	s635	0	False
630.704	1.0	632.633	0.9	2.68	True	71.0	Color	n/a	twobytwo	71.0	1.029	orange	2.0	task_switch	color	switch	stim	poldrack-single-stim	s635	0	False
634.287	1.0	636.499	0.9	2.272	True	71.0	High-Low	n/a	twobytwo	71.0	1.312	orange	7.0	task_switch	magnitude	switch	stim	poldrack-single-stim	s635	0	False
637.463	1.0	638.962	0.9	2.0	True	71.0	High-Low	stay	twobytwo	71.0	0.599	orange	7.0	cue_stay	magnitude	stay	stim	poldrack-single-stim	s635	0	False
639.565	1.0	639.564	0.1	2.0	False	89.0	Color	n/a	twobytwo	-1.0	n/a	blue	1.0	task_switch	color	switch	stim	poldrack-single-stim	s635	0	False
642.468	1.0	644.279	0.9	2.136	True	89.0	Color	stay	twobytwo	89.0	0.911	blue	9.0	cue_stay	color	stay	stim	poldrack-single-stim	s635	0	False
645.507	1.0	645.506	0.9	2.0	False	89.0	Orange-Blue	switch	twobytwo	-1.0	n/a	blue	3.0	cue_switch	color	stay	stim	poldrack-single-stim	s635	0	False
648.41	1.0	648.409	0.9	2.0	False	89.0	Color	switch	twobytwo	-1.0	n/a	blue	1.0	cue_switch	color	stay	stim	poldrack-single-stim	s635	0	False
651.313	1.0	651.312	0.9	2.0	False	89.0	Orange-Blue	switch	twobytwo	-1.0	n/a	blue	7.0	cue_switch	color	stay	stim	poldrack-single-stim	s635	0	False
653.415	1.0	653.414	0.1	2.272	False	89.0	Magnitude	n/a	twobytwo	-1.0	n/a	blue	4.0	task_switch	magnitude	switch	stim	poldrack-single-stim	s635	0	False
656.591	1.0	658.198	0.9	2.408	True	89.0	Magnitude	stay	twobytwo	89.0	0.707	orange	1.0	cue_stay	magnitude	stay	stim	poldrack-single-stim	s635	0	False
659.102	1.0	660.155	0.1	2.0	True	89.0	Orange-Blue	n/a	twobytwo	89.0	0.953	blue	3.0	task_switch	color	switch	stim	poldrack-single-stim	s635	0	False
662.004	1.0	662.003	0.9	2.0	False	71.0	Color	switch	twobytwo	-1.0	n/a	orange	6.0	cue_switch	color	stay	stim	poldrack-single-stim	s635	0	False
664.908	1.0	664.907	0.9	2.0	False	89.0	Orange-Blue	switch	twobytwo	-1.0	n/a	blue	2.0	cue_switch	color	stay	stim	poldrack-single-stim	s635	0	False
667.811	1.0	667.81	0.9	2.272	False	71.0	Orange-Blue	stay	twobytwo	-1.0	n/a	orange	2.0	cue_stay	color	stay	stim	poldrack-single-stim	s635	0	False
670.186	1.0	670.185	0.1	2.136	False	89.0	Magnitude	n/a	twobytwo	-1.0	n/a	blue	4.0	task_switch	magnitude	switch	stim	poldrack-single-stim	s635	0	False
673.225	1.0	673.224	0.9	2.0	False	71.0	Orange-Blue	n/a	twobytwo	-1.0	n/a	orange	3.0	task_switch	color	switch	stim	poldrack-single-stim	s635	0	False
676.128	1.0	676.127	0.9	2.544	False	89.0	Color	switch	twobytwo	-1.0	n/a	blue	7.0	cue_switch	color	stay	stim	poldrack-single-stim	s635	0	False
678.775	1.0	678.774	0.1	2.272	False	71.0	Magnitude	n/a	twobytwo	-1.0	n/a	orange	9.0	task_switch	magnitude	switch	stim	poldrack-single-stim	s635	0	False
681.151	1.0	681.15	0.1	2.272	False	71.0	Magnitude	stay	twobytwo	-1.0	n/a	blue	9.0	cue_stay	magnitude	stay	stim	poldrack-single-stim	s635	0	False
683.527	1.0	685.092	0.1	2.0	True	71.0	Color	n/a	twobytwo	71.0	1.465	orange	2.0	task_switch	color	switch	stim	poldrack-single-stim	s635	0	False
686.429	1.0	686.428	0.9	2.0	False	89.0	High-Low	n/a	twobytwo	-1.0	n/a	blue	4.0	task_switch	magnitude	switch	stim	poldrack-single-stim	s635	0	False
689.333	1.0	689.332	0.9	2.136	False	89.0	Color	n/a	twobytwo	-1.0	n/a	blue	1.0	task_switch	color	switch	stim	poldrack-single-stim	s635	0	False
692.372	1.0	692.371	0.9	2.0	False	89.0	High-Low	n/a	twobytwo	-1.0	n/a	blue	4.0	task_switch	magnitude	switch	stim	poldrack-single-stim	s635	0	False
