duration	onset	block_duration	movement_onset	planning	condition	exp_stage	experiment_exp_id	key_press	problem_id	response_time	trial_id	trial_type	worker_id	junk
3.717	3.005	3.717	6.722	1	UA_with_intermediate	practice	ward_and_allport	89	0.0	3.717	to_hand	poldrack-single-stim	s635	False
0.1	6.723	2.127	8.85	0	UA_with_intermediate	practice	ward_and_allport	89	0.0	2.127	to_board	poldrack-single-stim	s635	False
0.1	8.852	0.51	9.362	0	UA_with_intermediate	practice	ward_and_allport	71	0.0	0.51	to_hand	poldrack-single-stim	s635	False
0.1	9.364	2.487	11.851	0	UA_with_intermediate	practice	ward_and_allport	82	0.0	2.487	to_board	poldrack-single-stim	s635	False
0.1	11.852	0.794	12.646	0	UA_with_intermediate	practice	ward_and_allport	71	0.0	0.794	to_hand	poldrack-single-stim	s635	False
0.1	12.648	0.561	13.209	0	UA_with_intermediate	practice	ward_and_allport	89	0.0	0.561	to_board	poldrack-single-stim	s635	False
0.1	13.213	0.68	13.893	0	UA_with_intermediate	practice	ward_and_allport	82	0.0	0.68	to_hand	poldrack-single-stim	s635	False
0.1	13.894	0.552	14.446	0	UA_with_intermediate	practice	ward_and_allport	89	0.0	0.552	to_board	poldrack-single-stim	s635	False
1.0	14.448	2.5	14.447	0	UA_with_intermediate	practice	ward_and_allport	-1	0.0	n/a	feedback	poldrack-single-stim	s635	False
2.748	16.949	2.748	19.697	1	UA_with_intermediate	practice	ward_and_allport	89	1.0	2.748	to_hand	poldrack-single-stim	s635	False
0.1	19.698	1.097	20.795	0	UA_with_intermediate	practice	ward_and_allport	82	1.0	1.097	to_board	poldrack-single-stim	s635	False
0.1	20.797	1.303	22.1	0	UA_with_intermediate	practice	ward_and_allport	71	1.0	1.303	to_hand	poldrack-single-stim	s635	False
0.1	22.101	0.417	22.518	0	UA_with_intermediate	practice	ward_and_allport	89	1.0	0.417	to_board	poldrack-single-stim	s635	False
0.1	22.519	0.821	23.34	0	UA_with_intermediate	practice	ward_and_allport	82	1.0	0.821	to_hand	poldrack-single-stim	s635	False
0.1	23.341	0.32	23.661	0	UA_with_intermediate	practice	ward_and_allport	89	1.0	0.32	to_board	poldrack-single-stim	s635	False
1.0	23.662	2.1	23.661	0	UA_with_intermediate	practice	ward_and_allport	-1	1.0	n/a	feedback	poldrack-single-stim	s635	False
2.224	25.764	2.224	27.988	1	UA_without_intermediate	practice	ward_and_allport	82	2.0	2.224	to_hand	poldrack-single-stim	s635	False
0.1	27.989	0.362	28.351	0	UA_without_intermediate	practice	ward_and_allport	89	2.0	0.362	to_board	poldrack-single-stim	s635	False
0.1	28.353	1.207	29.56	0	UA_without_intermediate	practice	ward_and_allport	71	2.0	1.207	to_hand	poldrack-single-stim	s635	False
0.1	29.561	0.264	29.825	0	UA_without_intermediate	practice	ward_and_allport	89	2.0	0.264	to_board	poldrack-single-stim	s635	False
0.1	29.827	0.363	30.19	0	UA_without_intermediate	practice	ward_and_allport	71	2.0	0.363	to_hand	poldrack-single-stim	s635	False
0.1	30.191	0.216	30.407	0	UA_without_intermediate	practice	ward_and_allport	89	2.0	0.216	to_board	poldrack-single-stim	s635	False
1.0	30.409	2.2	30.408	0	UA_without_intermediate	practice	ward_and_allport	-1	2.0	n/a	feedback	poldrack-single-stim	s635	False
2.131	32.61	2.131	34.741	1	UA_without_intermediate	practice	ward_and_allport	71	3.0	2.131	to_hand	poldrack-single-stim	s635	False
0.1	34.742	0.288	35.03	0	UA_without_intermediate	practice	ward_and_allport	89	3.0	0.288	to_board	poldrack-single-stim	s635	False
0.1	35.032	1.269	36.301	0	UA_without_intermediate	practice	ward_and_allport	82	3.0	1.269	to_hand	poldrack-single-stim	s635	False
0.1	36.302	0.285	36.587	0	UA_without_intermediate	practice	ward_and_allport	89	3.0	0.285	to_board	poldrack-single-stim	s635	False
0.1	36.589	0.4	36.989	0	UA_without_intermediate	practice	ward_and_allport	71	3.0	0.4	to_hand	poldrack-single-stim	s635	False
0.1	36.99	0.214	37.204	0	UA_without_intermediate	practice	ward_and_allport	89	3.0	0.214	to_board	poldrack-single-stim	s635	False
1.0	37.207	2.0	37.206	0	UA_without_intermediate	practice	ward_and_allport	-1	3.0	n/a	feedback	poldrack-single-stim	s635	False
2.34	41.21	2.34	43.55	1	PA_with_intermediate	test	ward_and_allport	89	0.0	2.34	to_hand	poldrack-single-stim	s635	False
0.1	43.552	4.134	47.686	0	PA_with_intermediate	test	ward_and_allport	71	0.0	4.134	to_board	poldrack-single-stim	s635	False
0.1	47.688	0.424	48.112	0	PA_with_intermediate	test	ward_and_allport	89	0.0	0.424	to_hand	poldrack-single-stim	s635	False
0.1	48.113	0.697	48.81	0	PA_with_intermediate	test	ward_and_allport	82	0.0	0.697	to_board	poldrack-single-stim	s635	False
0.1	48.813	1.745	50.558	0	PA_with_intermediate	test	ward_and_allport	71	0.0	1.745	to_hand	poldrack-single-stim	s635	False
0.1	50.559	0.213	50.772	0	PA_with_intermediate	test	ward_and_allport	89	0.0	0.213	to_board	poldrack-single-stim	s635	False
1.0	50.775	3.768	50.774	0	PA_with_intermediate	test	ward_and_allport	-1	0.0	n/a	feedback	poldrack-single-stim	s635	False
3.556	54.544	3.556	58.1	1	PA_with_intermediate	test	ward_and_allport	71	1.0	3.556	to_hand	poldrack-single-stim	s635	False
0.1	58.101	0.756	58.857	0	PA_with_intermediate	test	ward_and_allport	89	1.0	0.756	to_board	poldrack-single-stim	s635	False
0.1	58.859	0.378	59.237	0	PA_with_intermediate	test	ward_and_allport	71	1.0	0.378	to_hand	poldrack-single-stim	s635	False
0.1	59.238	0.631	59.869	0	PA_with_intermediate	test	ward_and_allport	82	1.0	0.631	to_board	poldrack-single-stim	s635	False
0.1	59.872	0.485	60.357	0	PA_with_intermediate	test	ward_and_allport	89	1.0	0.485	to_hand	poldrack-single-stim	s635	False
0.1	60.358	0.392	60.75	0	PA_with_intermediate	test	ward_and_allport	71	1.0	0.392	to_board	poldrack-single-stim	s635	False
1.0	60.753	2.68	60.752	0	PA_with_intermediate	test	ward_and_allport	-1	1.0	n/a	feedback	poldrack-single-stim	s635	False
2.272	63.434	2.272	65.706	1	PA_without_intermediate	test	ward_and_allport	89	2.0	2.272	to_hand	poldrack-single-stim	s635	False
0.1	65.708	0.364	66.072	0	PA_without_intermediate	test	ward_and_allport	82	2.0	0.364	to_board	poldrack-single-stim	s635	False
0.1	66.074	0.697	66.771	0	PA_without_intermediate	test	ward_and_allport	89	2.0	0.697	to_hand	poldrack-single-stim	s635	False
0.1	66.773	0.66	67.433	0	PA_without_intermediate	test	ward_and_allport	71	2.0	0.66	to_board	poldrack-single-stim	s635	False
0.1	67.435	0.365	67.8	0	PA_without_intermediate	test	ward_and_allport	89	2.0	0.365	to_hand	poldrack-single-stim	s635	False
0.1	67.801	0.613	68.414	0	PA_without_intermediate	test	ward_and_allport	82	2.0	0.613	to_board	poldrack-single-stim	s635	False
1.0	68.416	3.224	68.415	0	PA_without_intermediate	test	ward_and_allport	-1	2.0	n/a	feedback	poldrack-single-stim	s635	False
2.289	71.643	2.289	73.932	1	PA_without_intermediate	test	ward_and_allport	71	3.0	2.289	to_hand	poldrack-single-stim	s635	False
0.1	73.933	0.543	74.476	0	PA_without_intermediate	test	ward_and_allport	82	3.0	0.543	to_board	poldrack-single-stim	s635	False
0.1	74.479	1.55	76.029	0	PA_without_intermediate	test	ward_and_allport	71	3.0	1.55	to_hand	poldrack-single-stim	s635	False
0.1	76.03	0.27	76.3	0	PA_without_intermediate	test	ward_and_allport	89	3.0	0.27	to_board	poldrack-single-stim	s635	False
0.1	76.303	0.62	76.923	0	PA_without_intermediate	test	ward_and_allport	71	3.0	0.62	to_hand	poldrack-single-stim	s635	False
0.1	76.924	0.357	77.281	0	PA_without_intermediate	test	ward_and_allport	82	3.0	0.357	to_board	poldrack-single-stim	s635	False
1.0	77.284	3.36	77.283	0	PA_without_intermediate	test	ward_and_allport	-1	3.0	n/a	feedback	poldrack-single-stim	s635	False
3.486	80.647	3.486	84.133	1	PA_without_intermediate	test	ward_and_allport	82	4.0	3.486	to_hand	poldrack-single-stim	s635	False
0.1	84.134	0.385	84.519	0	PA_without_intermediate	test	ward_and_allport	89	4.0	0.385	to_board	poldrack-single-stim	s635	False
0.1	84.522	1.556	86.078	0	PA_without_intermediate	test	ward_and_allport	82	4.0	1.556	to_hand	poldrack-single-stim	s635	False
0.1	86.079	1.175	87.254	0	PA_without_intermediate	test	ward_and_allport	71	4.0	1.175	to_board	poldrack-single-stim	s635	False
0.1	87.258	0.866	88.124	0	PA_without_intermediate	test	ward_and_allport	82	4.0	0.866	to_hand	poldrack-single-stim	s635	False
0.1	88.125	0.312	88.437	0	PA_without_intermediate	test	ward_and_allport	89	4.0	0.312	to_board	poldrack-single-stim	s635	False
1.0	88.44	2.0	88.439	0	PA_without_intermediate	test	ward_and_allport	-1	4.0	n/a	feedback	poldrack-single-stim	s635	False
2.643	90.444	2.643	93.087	1	PA_without_intermediate	test	ward_and_allport	89	5.0	2.643	to_hand	poldrack-single-stim	s635	False
0.1	93.088	0.715	93.803	0	PA_without_intermediate	test	ward_and_allport	71	5.0	0.715	to_board	poldrack-single-stim	s635	False
0.1	93.806	0.655	94.461	0	PA_without_intermediate	test	ward_and_allport	89	5.0	0.655	to_hand	poldrack-single-stim	s635	False
0.1	94.462	0.463	94.925	0	PA_without_intermediate	test	ward_and_allport	71	5.0	0.463	to_board	poldrack-single-stim	s635	False
0.1	94.929	0.33	95.259	0	PA_without_intermediate	test	ward_and_allport	89	5.0	0.33	to_hand	poldrack-single-stim	s635	False
0.1	95.26	0.423	95.683	0	PA_without_intermediate	test	ward_and_allport	82	5.0	0.423	to_board	poldrack-single-stim	s635	False
1.0	95.687	2.408	95.686	0	PA_without_intermediate	test	ward_and_allport	-1	5.0	n/a	feedback	poldrack-single-stim	s635	False
1.902	98.098	1.902	100.0	1	PA_with_intermediate	test	ward_and_allport	82	6.0	1.902	to_hand	poldrack-single-stim	s635	False
0.1	100.001	1.163	101.164	0	PA_with_intermediate	test	ward_and_allport	71	6.0	1.163	to_board	poldrack-single-stim	s635	False
0.1	101.167	1.401	102.568	0	PA_with_intermediate	test	ward_and_allport	82	6.0	1.401	to_hand	poldrack-single-stim	s635	False
0.1	102.569	0.453	103.022	0	PA_with_intermediate	test	ward_and_allport	89	6.0	0.453	to_board	poldrack-single-stim	s635	False
0.1	103.025	0.823	103.848	0	PA_with_intermediate	test	ward_and_allport	71	6.0	0.823	to_hand	poldrack-single-stim	s635	False
0.1	103.849	0.438	104.287	0	PA_with_intermediate	test	ward_and_allport	89	6.0	0.438	to_board	poldrack-single-stim	s635	False
1.0	104.291	2.136	104.29	0	PA_with_intermediate	test	ward_and_allport	-1	6.0	n/a	feedback	poldrack-single-stim	s635	False
1.878	106.429	1.878	108.307	1	PA_without_intermediate	test	ward_and_allport	89	7.0	1.878	to_hand	poldrack-single-stim	s635	False
0.1	108.308	0.564	108.872	0	PA_without_intermediate	test	ward_and_allport	82	7.0	0.564	to_board	poldrack-single-stim	s635	False
0.1	108.876	1.817	110.693	0	PA_without_intermediate	test	ward_and_allport	89	7.0	1.817	to_hand	poldrack-single-stim	s635	False
0.1	110.693	0.792	111.485	0	PA_without_intermediate	test	ward_and_allport	71	7.0	0.792	to_board	poldrack-single-stim	s635	False
0.1	111.489	0.297	111.786	0	PA_without_intermediate	test	ward_and_allport	89	7.0	0.297	to_hand	poldrack-single-stim	s635	False
0.1	111.787	0.613	112.4	0	PA_without_intermediate	test	ward_and_allport	82	7.0	0.613	to_board	poldrack-single-stim	s635	False
1.0	112.403	5.128	112.402	0	PA_without_intermediate	test	ward_and_allport	-1	7.0	n/a	feedback	poldrack-single-stim	s635	False
2.544	117.535	2.544	120.079	1	PA_without_intermediate	test	ward_and_allport	82	8.0	2.544	to_hand	poldrack-single-stim	s635	False
0.1	120.08	0.369	120.449	0	PA_without_intermediate	test	ward_and_allport	71	8.0	0.369	to_board	poldrack-single-stim	s635	False
0.1	120.453	1.235	121.688	0	PA_without_intermediate	test	ward_and_allport	82	8.0	1.235	to_hand	poldrack-single-stim	s635	False
0.1	121.689	0.254	121.943	0	PA_without_intermediate	test	ward_and_allport	89	8.0	0.254	to_board	poldrack-single-stim	s635	False
0.1	121.947	0.933	122.88	0	PA_without_intermediate	test	ward_and_allport	82	8.0	0.933	to_hand	poldrack-single-stim	s635	False
0.1	122.882	0.321	123.203	0	PA_without_intermediate	test	ward_and_allport	71	8.0	0.321	to_board	poldrack-single-stim	s635	False
1.0	123.207	2.136	123.206	0	PA_without_intermediate	test	ward_and_allport	-1	8.0	n/a	feedback	poldrack-single-stim	s635	False
1.403	125.346	1.403	126.749	1	PA_without_intermediate	test	ward_and_allport	82	9.0	1.403	to_hand	poldrack-single-stim	s635	False
0.1	126.75	0.365	127.115	0	PA_without_intermediate	test	ward_and_allport	89	9.0	0.365	to_board	poldrack-single-stim	s635	False
0.1	127.118	0.523	127.641	0	PA_without_intermediate	test	ward_and_allport	82	9.0	0.523	to_hand	poldrack-single-stim	s635	False
0.1	127.642	0.589	128.231	0	PA_without_intermediate	test	ward_and_allport	89	9.0	0.589	to_board	poldrack-single-stim	s635	False
0.1	128.235	0.408	128.643	0	PA_without_intermediate	test	ward_and_allport	82	9.0	0.408	to_hand	poldrack-single-stim	s635	False
0.1	128.644	0.372	129.016	0	PA_without_intermediate	test	ward_and_allport	71	9.0	0.372	to_board	poldrack-single-stim	s635	False
1.0	129.021	5.264	129.02	0	PA_without_intermediate	test	ward_and_allport	-1	9.0	n/a	feedback	poldrack-single-stim	s635	False
1.645	134.289	1.645	135.934	1	PA_with_intermediate	test	ward_and_allport	82	10.0	1.645	to_hand	poldrack-single-stim	s635	False
0.1	135.935	0.525	136.46	0	PA_with_intermediate	test	ward_and_allport	71	10.0	0.525	to_board	poldrack-single-stim	s635	False
0.1	136.465	1.263	137.728	0	PA_with_intermediate	test	ward_and_allport	82	10.0	1.263	to_hand	poldrack-single-stim	s635	False
0.1	137.73	0.346	138.076	0	PA_with_intermediate	test	ward_and_allport	89	10.0	0.346	to_board	poldrack-single-stim	s635	False
0.1	138.08	1.05	139.13	0	PA_with_intermediate	test	ward_and_allport	71	10.0	1.05	to_hand	poldrack-single-stim	s635	False
0.1	139.132	0.256	139.388	0	PA_with_intermediate	test	ward_and_allport	89	10.0	0.256	to_board	poldrack-single-stim	s635	False
1.0	139.392	4.04	139.391	0	PA_with_intermediate	test	ward_and_allport	-1	10.0	n/a	feedback	poldrack-single-stim	s635	False
1.904	143.436	1.904	145.34	1	PA_with_intermediate	test	ward_and_allport	89	11.0	1.904	to_hand	poldrack-single-stim	s635	False
0.1	145.342	0.476	145.818	0	PA_with_intermediate	test	ward_and_allport	82	11.0	0.476	to_board	poldrack-single-stim	s635	False
0.1	145.821	0.576	146.397	0	PA_with_intermediate	test	ward_and_allport	89	11.0	0.576	to_hand	poldrack-single-stim	s635	False
0.1	146.398	0.494	146.892	0	PA_with_intermediate	test	ward_and_allport	71	11.0	0.494	to_board	poldrack-single-stim	s635	False
0.1	146.896	0.395	147.291	0	PA_with_intermediate	test	ward_and_allport	82	11.0	0.395	to_hand	poldrack-single-stim	s635	False
0.1	147.292	0.424	147.716	0	PA_with_intermediate	test	ward_and_allport	71	11.0	0.424	to_board	poldrack-single-stim	s635	False
1.0	147.721	2.136	147.72	0	PA_with_intermediate	test	ward_and_allport	-1	11.0	n/a	feedback	poldrack-single-stim	s635	False
4.439	149.861	4.439	154.3	1	PA_with_intermediate	test	ward_and_allport	82	12.0	4.439	to_hand	poldrack-single-stim	s635	False
0.1	154.301	0.358	154.659	0	PA_with_intermediate	test	ward_and_allport	89	12.0	0.358	to_board	poldrack-single-stim	s635	False
0.1	154.664	1.401	156.065	0	PA_with_intermediate	test	ward_and_allport	82	12.0	1.401	to_hand	poldrack-single-stim	s635	False
0.1	156.066	0.438	156.504	0	PA_with_intermediate	test	ward_and_allport	71	12.0	0.438	to_board	poldrack-single-stim	s635	False
0.1	156.509	0.562	157.071	0	PA_with_intermediate	test	ward_and_allport	89	12.0	0.562	to_hand	poldrack-single-stim	s635	False
0.1	157.072	0.366	157.438	0	PA_with_intermediate	test	ward_and_allport	82	12.0	0.366	to_board	poldrack-single-stim	s635	False
1.0	157.443	2.408	157.442	0	PA_with_intermediate	test	ward_and_allport	-1	12.0	n/a	feedback	poldrack-single-stim	s635	False
2.028	159.856	2.028	161.884	1	PA_without_intermediate	test	ward_and_allport	89	13.0	2.028	to_hand	poldrack-single-stim	s635	False
0.1	161.885	0.433	162.318	0	PA_without_intermediate	test	ward_and_allport	71	13.0	0.433	to_board	poldrack-single-stim	s635	False
0.1	162.323	0.667	162.99	0	PA_without_intermediate	test	ward_and_allport	89	13.0	0.667	to_hand	poldrack-single-stim	s635	False
0.1	162.991	0.489	163.48	0	PA_without_intermediate	test	ward_and_allport	82	13.0	0.489	to_board	poldrack-single-stim	s635	False
0.1	163.485	0.436	163.921	0	PA_without_intermediate	test	ward_and_allport	89	13.0	0.436	to_hand	poldrack-single-stim	s635	False
0.1	163.922	0.4	164.322	0	PA_without_intermediate	test	ward_and_allport	71	13.0	0.4	to_board	poldrack-single-stim	s635	False
1.0	164.327	2.68	164.326	0	PA_without_intermediate	test	ward_and_allport	-1	13.0	n/a	feedback	poldrack-single-stim	s635	False
2.218	167.012	2.218	169.23	1	PA_with_intermediate	test	ward_and_allport	82	14.0	2.218	to_hand	poldrack-single-stim	s635	False
0.1	169.231	0.318	169.549	0	PA_with_intermediate	test	ward_and_allport	89	14.0	0.318	to_board	poldrack-single-stim	s635	False
0.1	169.553	0.89	170.443	0	PA_with_intermediate	test	ward_and_allport	82	14.0	0.89	to_hand	poldrack-single-stim	s635	False
0.1	170.444	0.452	170.896	0	PA_with_intermediate	test	ward_and_allport	71	14.0	0.452	to_board	poldrack-single-stim	s635	False
0.1	170.9	0.548	171.448	0	PA_with_intermediate	test	ward_and_allport	89	14.0	0.548	to_hand	poldrack-single-stim	s635	False
0.1	171.449	0.726	172.175	0	PA_with_intermediate	test	ward_and_allport	82	14.0	0.726	to_board	poldrack-single-stim	s635	False
1.0	172.18	4.72	172.179	0	PA_with_intermediate	test	ward_and_allport	-1	14.0	n/a	feedback	poldrack-single-stim	s635	False
1.328	181.909	1.328	183.237	1	PA_without_intermediate	test	ward_and_allport	82	15.0	1.328	to_hand	poldrack-single-stim	s635	False
0.1	183.238	0.379	183.617	0	PA_without_intermediate	test	ward_and_allport	71	15.0	0.379	to_board	poldrack-single-stim	s635	False
0.1	183.622	0.722	184.344	0	PA_without_intermediate	test	ward_and_allport	82	15.0	0.722	to_hand	poldrack-single-stim	s635	False
0.1	184.345	0.458	184.803	0	PA_without_intermediate	test	ward_and_allport	71	15.0	0.458	to_board	poldrack-single-stim	s635	False
0.1	184.808	0.359	185.167	0	PA_without_intermediate	test	ward_and_allport	82	15.0	0.359	to_hand	poldrack-single-stim	s635	False
0.1	185.168	0.315	185.483	0	PA_without_intermediate	test	ward_and_allport	89	15.0	0.315	to_board	poldrack-single-stim	s635	False
1.0	185.488	3.224	185.487	0	PA_without_intermediate	test	ward_and_allport	-1	15.0	n/a	feedback	poldrack-single-stim	s635	False
1.364	188.717	1.364	190.081	1	PA_without_intermediate	test	ward_and_allport	71	16.0	1.364	to_hand	poldrack-single-stim	s635	False
0.1	190.083	0.468	190.551	0	PA_without_intermediate	test	ward_and_allport	89	16.0	0.468	to_board	poldrack-single-stim	s635	False
0.1	190.556	0.654	191.21	0	PA_without_intermediate	test	ward_and_allport	71	16.0	0.654	to_hand	poldrack-single-stim	s635	False
0.1	191.212	0.368	191.58	0	PA_without_intermediate	test	ward_and_allport	89	16.0	0.368	to_board	poldrack-single-stim	s635	False
0.1	191.585	0.5	192.085	0	PA_without_intermediate	test	ward_and_allport	71	16.0	0.5	to_hand	poldrack-single-stim	s635	False
0.1	192.086	0.566	192.652	0	PA_without_intermediate	test	ward_and_allport	82	16.0	0.566	to_board	poldrack-single-stim	s635	False
1.0	192.657	2.272	192.656	0	PA_without_intermediate	test	ward_and_allport	-1	16.0	n/a	feedback	poldrack-single-stim	s635	False
1.31	194.933	1.31	196.243	1	PA_with_intermediate	test	ward_and_allport	71	17.0	1.31	to_hand	poldrack-single-stim	s635	False
0.1	196.244	0.789	197.033	0	PA_with_intermediate	test	ward_and_allport	82	17.0	0.789	to_board	poldrack-single-stim	s635	False
0.1	197.038	2.776	199.814	0	PA_with_intermediate	test	ward_and_allport	82	17.0	2.776	to_hand	poldrack-single-stim	s635	False
0.1	199.814	1.514	201.328	0	PA_with_intermediate	test	ward_and_allport	89	17.0	1.514	to_board	poldrack-single-stim	s635	False
0.1	201.333	1.454	202.787	0	PA_with_intermediate	test	ward_and_allport	71	17.0	1.454	to_hand	poldrack-single-stim	s635	False
0.1	202.788	0.349	203.137	0	PA_with_intermediate	test	ward_and_allport	82	17.0	0.349	to_board	poldrack-single-stim	s635	False
0.1	203.141	0.299	203.44	0	PA_with_intermediate	test	ward_and_allport	89	17.0	0.299	to_hand	poldrack-single-stim	s635	False
0.1	203.441	0.322	203.763	0	PA_with_intermediate	test	ward_and_allport	71	17.0	0.322	to_board	poldrack-single-stim	s635	False
1.0	203.768	3.632	203.767	0	PA_with_intermediate	test	ward_and_allport	-1	17.0	n/a	feedback	poldrack-single-stim	s635	False
1.311	207.405	1.311	208.716	1	PA_without_intermediate	test	ward_and_allport	71	18.0	1.311	to_hand	poldrack-single-stim	s635	False
0.1	208.717	0.301	209.018	0	PA_without_intermediate	test	ward_and_allport	89	18.0	0.301	to_board	poldrack-single-stim	s635	False
0.1	209.023	0.348	209.371	0	PA_without_intermediate	test	ward_and_allport	71	18.0	0.348	to_hand	poldrack-single-stim	s635	False
0.1	209.372	0.307	209.679	0	PA_without_intermediate	test	ward_and_allport	89	18.0	0.307	to_board	poldrack-single-stim	s635	False
0.1	209.684	0.343	210.027	0	PA_without_intermediate	test	ward_and_allport	71	18.0	0.343	to_hand	poldrack-single-stim	s635	False
0.1	210.028	0.404	210.432	0	PA_without_intermediate	test	ward_and_allport	82	18.0	0.404	to_board	poldrack-single-stim	s635	False
1.0	210.437	2.408	210.436	0	PA_without_intermediate	test	ward_and_allport	-1	18.0	n/a	feedback	poldrack-single-stim	s635	False
1.133	212.849	1.133	213.982	1	PA_without_intermediate	test	ward_and_allport	89	19.0	1.133	to_hand	poldrack-single-stim	s635	False
0.1	213.983	0.32	214.303	0	PA_without_intermediate	test	ward_and_allport	71	19.0	0.32	to_board	poldrack-single-stim	s635	False
0.1	214.307	0.831	215.138	0	PA_without_intermediate	test	ward_and_allport	89	19.0	0.831	to_hand	poldrack-single-stim	s635	False
0.1	215.139	0.323	215.462	0	PA_without_intermediate	test	ward_and_allport	82	19.0	0.323	to_board	poldrack-single-stim	s635	False
0.1	215.466	0.317	215.783	0	PA_without_intermediate	test	ward_and_allport	89	19.0	0.317	to_hand	poldrack-single-stim	s635	False
0.1	215.784	0.429	216.213	0	PA_without_intermediate	test	ward_and_allport	71	19.0	0.429	to_board	poldrack-single-stim	s635	False
1.0	216.219	2.0	216.218	0	PA_without_intermediate	test	ward_and_allport	-1	19.0	n/a	feedback	poldrack-single-stim	s635	False
1.883	218.225	1.883	220.108	1	PA_with_intermediate	test	ward_and_allport	89	20.0	1.883	to_hand	poldrack-single-stim	s635	False
0.1	220.109	0.311	220.42	0	PA_with_intermediate	test	ward_and_allport	71	20.0	0.311	to_board	poldrack-single-stim	s635	False
0.1	220.425	0.778	221.203	0	PA_with_intermediate	test	ward_and_allport	89	20.0	0.778	to_hand	poldrack-single-stim	s635	False
0.1	221.205	0.356	221.561	0	PA_with_intermediate	test	ward_and_allport	82	20.0	0.356	to_board	poldrack-single-stim	s635	False
0.1	221.566	0.681	222.247	0	PA_with_intermediate	test	ward_and_allport	71	20.0	0.681	to_hand	poldrack-single-stim	s635	False
0.1	222.248	0.25	222.498	0	PA_with_intermediate	test	ward_and_allport	89	20.0	0.25	to_board	poldrack-single-stim	s635	False
1.0	222.505	2.0	222.504	0	PA_with_intermediate	test	ward_and_allport	-1	20.0	n/a	feedback	poldrack-single-stim	s635	False
1.74	224.51	1.74	226.25	1	PA_with_intermediate	test	ward_and_allport	71	21.0	1.74	to_hand	poldrack-single-stim	s635	False
0.1	226.251	0.347	226.598	0	PA_with_intermediate	test	ward_and_allport	82	21.0	0.347	to_board	poldrack-single-stim	s635	False
0.1	226.604	1.022	227.626	0	PA_with_intermediate	test	ward_and_allport	71	21.0	1.022	to_hand	poldrack-single-stim	s635	False
0.1	227.627	0.222	227.849	0	PA_with_intermediate	test	ward_and_allport	89	21.0	0.222	to_board	poldrack-single-stim	s635	False
0.1	227.855	1.354	229.209	0	PA_with_intermediate	test	ward_and_allport	82	21.0	1.354	to_hand	poldrack-single-stim	s635	False
0.1	229.21	0.26	229.47	0	PA_with_intermediate	test	ward_and_allport	71	21.0	0.26	to_board	poldrack-single-stim	s635	False
1.0	229.476	2.0	229.475	0	PA_with_intermediate	test	ward_and_allport	-1	21.0	n/a	feedback	poldrack-single-stim	s635	False
1.199	231.483	1.199	232.682	1	PA_with_intermediate	test	ward_and_allport	89	22.0	1.199	to_hand	poldrack-single-stim	s635	False
0.1	232.683	1.184	233.867	0	PA_with_intermediate	test	ward_and_allport	71	22.0	1.184	to_board	poldrack-single-stim	s635	False
0.1	233.875	0.945	234.82	0	PA_with_intermediate	test	ward_and_allport	89	22.0	0.945	to_hand	poldrack-single-stim	s635	False
0.1	234.822	0.521	235.343	0	PA_with_intermediate	test	ward_and_allport	82	22.0	0.521	to_board	poldrack-single-stim	s635	False
0.1	235.349	1.186	236.535	0	PA_with_intermediate	test	ward_and_allport	71	22.0	1.186	to_hand	poldrack-single-stim	s635	False
0.1	236.536	0.38	236.916	0	PA_with_intermediate	test	ward_and_allport	82	22.0	0.38	to_board	poldrack-single-stim	s635	False
1.0	236.923	2.408	236.922	0	PA_with_intermediate	test	ward_and_allport	-1	22.0	n/a	feedback	poldrack-single-stim	s635	False
1.168	239.336	1.168	240.504	1	PA_without_intermediate	test	ward_and_allport	71	23.0	1.168	to_hand	poldrack-single-stim	s635	False
0.1	240.505	0.352	240.857	0	PA_without_intermediate	test	ward_and_allport	89	23.0	0.352	to_board	poldrack-single-stim	s635	False
0.1	240.863	0.502	241.365	0	PA_without_intermediate	test	ward_and_allport	71	23.0	0.502	to_hand	poldrack-single-stim	s635	False
0.1	241.366	0.478	241.844	0	PA_without_intermediate	test	ward_and_allport	82	23.0	0.478	to_board	poldrack-single-stim	s635	False
0.1	241.85	0.432	242.282	0	PA_without_intermediate	test	ward_and_allport	71	23.0	0.432	to_hand	poldrack-single-stim	s635	False
0.1	242.283	0.385	242.668	0	PA_without_intermediate	test	ward_and_allport	89	23.0	0.385	to_board	poldrack-single-stim	s635	False
1.0	242.676	2.816	242.675	0	PA_without_intermediate	test	ward_and_allport	-1	23.0	n/a	feedback	poldrack-single-stim	s635	False
1.067	245.498	1.067	246.565	1	PA_with_intermediate	test	ward_and_allport	89	24.0	1.067	to_hand	poldrack-single-stim	s635	False
0.1	246.566	1.803	248.369	0	PA_with_intermediate	test	ward_and_allport	82	24.0	1.803	to_board	poldrack-single-stim	s635	False
0.1	248.375	0.861	249.236	0	PA_with_intermediate	test	ward_and_allport	89	24.0	0.861	to_hand	poldrack-single-stim	s635	False
0.1	249.237	0.417	249.654	0	PA_with_intermediate	test	ward_and_allport	71	24.0	0.417	to_board	poldrack-single-stim	s635	False
0.1	249.661	0.442	250.103	0	PA_with_intermediate	test	ward_and_allport	82	24.0	0.442	to_hand	poldrack-single-stim	s635	False
0.1	250.104	0.349	250.453	0	PA_with_intermediate	test	ward_and_allport	71	24.0	0.349	to_board	poldrack-single-stim	s635	False
1.0	250.46	4.176	250.459	0	PA_with_intermediate	test	ward_and_allport	-1	24.0	n/a	feedback	poldrack-single-stim	s635	False
1.354	254.643	1.354	255.997	1	PA_with_intermediate	test	ward_and_allport	82	25.0	1.354	to_hand	poldrack-single-stim	s635	False
0.1	255.998	0.393	256.391	0	PA_with_intermediate	test	ward_and_allport	89	25.0	0.393	to_board	poldrack-single-stim	s635	False
0.1	256.398	1.257	257.655	0	PA_with_intermediate	test	ward_and_allport	82	25.0	1.257	to_hand	poldrack-single-stim	s635	False
0.1	257.657	0.795	258.452	0	PA_with_intermediate	test	ward_and_allport	71	25.0	0.795	to_board	poldrack-single-stim	s635	False
0.1	258.459	0.505	258.964	0	PA_with_intermediate	test	ward_and_allport	89	25.0	0.505	to_hand	poldrack-single-stim	s635	False
0.1	258.965	0.254	259.219	0	PA_with_intermediate	test	ward_and_allport	71	25.0	0.254	to_board	poldrack-single-stim	s635	False
1.0	259.226	3.36	259.225	0	PA_with_intermediate	test	ward_and_allport	-1	25.0	n/a	feedback	poldrack-single-stim	s635	False
1.071	262.593	1.071	263.664	1	PA_with_intermediate	test	ward_and_allport	82	26.0	1.071	to_hand	poldrack-single-stim	s635	False
0.1	263.665	0.376	264.041	0	PA_with_intermediate	test	ward_and_allport	89	26.0	0.376	to_board	poldrack-single-stim	s635	False
0.1	264.048	0.933	264.981	0	PA_with_intermediate	test	ward_and_allport	82	26.0	0.933	to_hand	poldrack-single-stim	s635	False
0.1	264.982	0.838	265.82	0	PA_with_intermediate	test	ward_and_allport	71	26.0	0.838	to_board	poldrack-single-stim	s635	False
0.1	265.828	0.326	266.154	0	PA_with_intermediate	test	ward_and_allport	89	26.0	0.326	to_hand	poldrack-single-stim	s635	False
0.1	266.155	0.621	266.776	0	PA_with_intermediate	test	ward_and_allport	71	26.0	0.621	to_board	poldrack-single-stim	s635	False
1.0	266.783	2.0	266.782	0	PA_with_intermediate	test	ward_and_allport	-1	26.0	n/a	feedback	poldrack-single-stim	s635	False
3.193	268.79	3.193	271.983	1	PA_without_intermediate	test	ward_and_allport	82	27.0	3.193	to_hand	poldrack-single-stim	s635	False
0.1	271.984	0.301	272.285	0	PA_without_intermediate	test	ward_and_allport	89	27.0	0.301	to_board	poldrack-single-stim	s635	False
0.1	272.292	1.04	273.332	0	PA_without_intermediate	test	ward_and_allport	82	27.0	1.04	to_hand	poldrack-single-stim	s635	False
0.1	273.333	0.492	273.825	0	PA_without_intermediate	test	ward_and_allport	71	27.0	0.492	to_board	poldrack-single-stim	s635	False
0.1	273.832	0.437	274.269	0	PA_without_intermediate	test	ward_and_allport	82	27.0	0.437	to_hand	poldrack-single-stim	s635	False
0.1	274.27	0.261	274.531	0	PA_without_intermediate	test	ward_and_allport	89	27.0	0.261	to_board	poldrack-single-stim	s635	False
1.0	274.538	2.408	274.537	0	PA_without_intermediate	test	ward_and_allport	-1	27.0	n/a	feedback	poldrack-single-stim	s635	False
2.057	276.953	2.057	279.01	1	PA_with_intermediate	test	ward_and_allport	71	28.0	2.057	to_hand	poldrack-single-stim	s635	False
0.1	279.012	0.26	279.272	0	PA_with_intermediate	test	ward_and_allport	89	28.0	0.26	to_board	poldrack-single-stim	s635	False
0.1	279.278	0.506	279.784	0	PA_with_intermediate	test	ward_and_allport	71	28.0	0.506	to_hand	poldrack-single-stim	s635	False
0.1	279.786	0.374	280.16	0	PA_with_intermediate	test	ward_and_allport	82	28.0	0.374	to_board	poldrack-single-stim	s635	False
0.1	280.168	0.352	280.52	0	PA_with_intermediate	test	ward_and_allport	89	28.0	0.352	to_hand	poldrack-single-stim	s635	False
0.1	280.522	0.375	280.897	0	PA_with_intermediate	test	ward_and_allport	82	28.0	0.375	to_board	poldrack-single-stim	s635	False
1.0	280.905	2.816	280.904	0	PA_with_intermediate	test	ward_and_allport	-1	28.0	n/a	feedback	poldrack-single-stim	s635	False
1.742	283.73	1.742	285.472	1	PA_without_intermediate	test	ward_and_allport	71	29.0	1.742	to_hand	poldrack-single-stim	s635	False
0.1	285.473	0.491	285.964	0	PA_without_intermediate	test	ward_and_allport	82	29.0	0.491	to_board	poldrack-single-stim	s635	False
0.1	285.971	0.369	286.34	0	PA_without_intermediate	test	ward_and_allport	71	29.0	0.369	to_hand	poldrack-single-stim	s635	False
0.1	286.341	0.293	286.634	0	PA_without_intermediate	test	ward_and_allport	82	29.0	0.293	to_board	poldrack-single-stim	s635	False
0.1	286.642	1.178	287.82	0	PA_without_intermediate	test	ward_and_allport	71	29.0	1.178	to_hand	poldrack-single-stim	s635	False
0.1	287.82	0.409	288.229	0	PA_without_intermediate	test	ward_and_allport	89	29.0	0.409	to_board	poldrack-single-stim	s635	False
1.0	288.237	3.088	288.236	0	PA_without_intermediate	test	ward_and_allport	-1	29.0	n/a	feedback	poldrack-single-stim	s635	False
2.088	296.334	2.088	298.422	1	PA_without_intermediate	test	ward_and_allport	71	30.0	2.088	to_hand	poldrack-single-stim	s635	False
0.1	298.423	0.265	298.688	0	PA_without_intermediate	test	ward_and_allport	89	30.0	0.265	to_board	poldrack-single-stim	s635	False
0.1	298.696	0.339	299.035	0	PA_without_intermediate	test	ward_and_allport	71	30.0	0.339	to_hand	poldrack-single-stim	s635	False
0.1	299.036	0.346	299.382	0	PA_without_intermediate	test	ward_and_allport	82	30.0	0.346	to_board	poldrack-single-stim	s635	False
0.1	299.39	0.532	299.922	0	PA_without_intermediate	test	ward_and_allport	71	30.0	0.532	to_hand	poldrack-single-stim	s635	False
0.1	299.924	0.215	300.139	0	PA_without_intermediate	test	ward_and_allport	89	30.0	0.215	to_board	poldrack-single-stim	s635	False
1.0	300.147	2.136	300.146	0	PA_without_intermediate	test	ward_and_allport	-1	30.0	n/a	feedback	poldrack-single-stim	s635	False
1.573	302.29	1.573	303.863	1	PA_without_intermediate	test	ward_and_allport	89	31.0	1.573	to_hand	poldrack-single-stim	s635	False
0.1	303.864	0.293	304.157	0	PA_without_intermediate	test	ward_and_allport	71	31.0	0.293	to_board	poldrack-single-stim	s635	False
0.1	304.164	0.805	304.969	0	PA_without_intermediate	test	ward_and_allport	89	31.0	0.805	to_hand	poldrack-single-stim	s635	False
0.1	304.97	0.291	305.261	0	PA_without_intermediate	test	ward_and_allport	71	31.0	0.291	to_board	poldrack-single-stim	s635	False
0.1	305.267	0.351	305.618	0	PA_without_intermediate	test	ward_and_allport	89	31.0	0.351	to_hand	poldrack-single-stim	s635	False
0.1	305.619	0.319	305.938	0	PA_without_intermediate	test	ward_and_allport	82	31.0	0.319	to_board	poldrack-single-stim	s635	False
1.0	305.947	7.168	305.946	0	PA_without_intermediate	test	ward_and_allport	-1	31.0	n/a	feedback	poldrack-single-stim	s635	False
0.98	313.123	0.98	314.103	1	PA_without_intermediate	test	ward_and_allport	71	32.0	0.98	to_hand	poldrack-single-stim	s635	False
0.1	314.104	0.358	314.462	0	PA_without_intermediate	test	ward_and_allport	82	32.0	0.358	to_board	poldrack-single-stim	s635	False
0.1	314.47	0.79	315.26	0	PA_without_intermediate	test	ward_and_allport	71	32.0	0.79	to_hand	poldrack-single-stim	s635	False
0.1	315.261	0.288	315.549	0	PA_without_intermediate	test	ward_and_allport	89	32.0	0.288	to_board	poldrack-single-stim	s635	False
0.1	315.558	0.38	315.938	0	PA_without_intermediate	test	ward_and_allport	71	32.0	0.38	to_hand	poldrack-single-stim	s635	False
0.1	315.939	0.297	316.236	0	PA_without_intermediate	test	ward_and_allport	82	32.0	0.297	to_board	poldrack-single-stim	s635	False
1.0	316.246	2.816	316.245	0	PA_without_intermediate	test	ward_and_allport	-1	32.0	n/a	feedback	poldrack-single-stim	s635	False
5.177	319.072	5.177	324.249	1	PA_with_intermediate	test	ward_and_allport	89	33.0	5.177	to_hand	poldrack-single-stim	s635	False
0.1	324.25	0.367	324.617	0	PA_with_intermediate	test	ward_and_allport	82	33.0	0.367	to_board	poldrack-single-stim	s635	False
0.1	324.625	0.642	325.267	0	PA_with_intermediate	test	ward_and_allport	89	33.0	0.642	to_hand	poldrack-single-stim	s635	False
0.1	325.268	0.387	325.655	0	PA_with_intermediate	test	ward_and_allport	71	33.0	0.387	to_board	poldrack-single-stim	s635	False
0.1	325.664	0.767	326.431	0	PA_with_intermediate	test	ward_and_allport	82	33.0	0.767	to_hand	poldrack-single-stim	s635	False
0.1	326.432	0.237	326.669	0	PA_with_intermediate	test	ward_and_allport	89	33.0	0.237	to_board	poldrack-single-stim	s635	False
1.0	326.681	2.952	326.68	0	PA_with_intermediate	test	ward_and_allport	-1	33.0	n/a	feedback	poldrack-single-stim	s635	False
1.116	329.64	1.116	330.756	1	PA_with_intermediate	test	ward_and_allport	89	34.0	1.116	to_hand	poldrack-single-stim	s635	False
0.1	330.757	0.349	331.106	0	PA_with_intermediate	test	ward_and_allport	82	34.0	0.349	to_board	poldrack-single-stim	s635	False
0.1	331.113	0.46	331.573	0	PA_with_intermediate	test	ward_and_allport	89	34.0	0.46	to_hand	poldrack-single-stim	s635	False
0.1	331.574	0.429	332.003	0	PA_with_intermediate	test	ward_and_allport	71	34.0	0.429	to_board	poldrack-single-stim	s635	False
0.1	332.009	0.749	332.758	0	PA_with_intermediate	test	ward_and_allport	82	34.0	0.749	to_hand	poldrack-single-stim	s635	False
0.1	332.759	0.225	332.984	0	PA_with_intermediate	test	ward_and_allport	89	34.0	0.225	to_board	poldrack-single-stim	s635	False
1.0	332.992	2.136	332.991	0	PA_with_intermediate	test	ward_and_allport	-1	34.0	n/a	feedback	poldrack-single-stim	s635	False
1.261	335.137	1.261	336.398	1	PA_without_intermediate	test	ward_and_allport	82	35.0	1.261	to_hand	poldrack-single-stim	s635	False
0.1	336.399	1.12	337.519	0	PA_without_intermediate	test	ward_and_allport	71	35.0	1.12	to_board	poldrack-single-stim	s635	False
0.1	337.526	0.513	338.039	0	PA_without_intermediate	test	ward_and_allport	82	35.0	0.513	to_hand	poldrack-single-stim	s635	False
0.1	338.04	0.468	338.508	0	PA_without_intermediate	test	ward_and_allport	71	35.0	0.468	to_board	poldrack-single-stim	s635	False
0.1	338.517	0.998	339.515	0	PA_without_intermediate	test	ward_and_allport	82	35.0	0.998	to_hand	poldrack-single-stim	s635	False
0.1	339.516	0.277	339.793	0	PA_without_intermediate	test	ward_and_allport	89	35.0	0.277	to_board	poldrack-single-stim	s635	False
1.0	339.803	2.68	339.802	0	PA_without_intermediate	test	ward_and_allport	-1	35.0	n/a	feedback	poldrack-single-stim	s635	False
1.893	342.49	1.893	344.383	1	PA_without_intermediate	test	ward_and_allport	89	36.0	1.893	to_hand	poldrack-single-stim	s635	False
0.1	344.384	0.321	344.705	0	PA_without_intermediate	test	ward_and_allport	82	36.0	0.321	to_board	poldrack-single-stim	s635	False
0.1	344.713	0.345	345.058	0	PA_without_intermediate	test	ward_and_allport	89	36.0	0.345	to_hand	poldrack-single-stim	s635	False
0.1	345.059	0.419	345.478	0	PA_without_intermediate	test	ward_and_allport	82	36.0	0.419	to_board	poldrack-single-stim	s635	False
0.1	345.483	5.116	350.599	0	PA_without_intermediate	test	ward_and_allport	89	36.0	5.116	to_hand	poldrack-single-stim	s635	False
0.1	350.6	0.281	350.881	0	PA_without_intermediate	test	ward_and_allport	71	36.0	0.281	to_board	poldrack-single-stim	s635	False
1.0	350.891	3.088	350.89	0	PA_without_intermediate	test	ward_and_allport	-1	36.0	n/a	feedback	poldrack-single-stim	s635	False
0.984	353.99	0.984	354.974	1	PA_with_intermediate	test	ward_and_allport	89	37.0	0.984	to_hand	poldrack-single-stim	s635	False
0.1	354.974	1.196	356.17	0	PA_with_intermediate	test	ward_and_allport	71	37.0	1.196	to_board	poldrack-single-stim	s635	False
0.1	356.18	0.414	356.594	0	PA_with_intermediate	test	ward_and_allport	89	37.0	0.414	to_hand	poldrack-single-stim	s635	False
0.1	356.596	0.426	357.022	0	PA_with_intermediate	test	ward_and_allport	82	37.0	0.426	to_board	poldrack-single-stim	s635	False
0.1	357.029	0.543	357.572	0	PA_with_intermediate	test	ward_and_allport	71	37.0	0.543	to_hand	poldrack-single-stim	s635	False
0.1	357.572	0.364	357.936	0	PA_with_intermediate	test	ward_and_allport	82	37.0	0.364	to_board	poldrack-single-stim	s635	False
1.0	357.944	2.0	357.943	0	PA_with_intermediate	test	ward_and_allport	-1	37.0	n/a	feedback	poldrack-single-stim	s635	False
1.346	359.952	1.346	361.298	1	PA_without_intermediate	test	ward_and_allport	71	38.0	1.346	to_hand	poldrack-single-stim	s635	False
0.1	361.299	0.374	361.673	0	PA_without_intermediate	test	ward_and_allport	82	38.0	0.374	to_board	poldrack-single-stim	s635	False
0.1	361.68	0.656	362.336	0	PA_without_intermediate	test	ward_and_allport	71	38.0	0.656	to_hand	poldrack-single-stim	s635	False
0.1	362.337	0.356	362.693	0	PA_without_intermediate	test	ward_and_allport	82	38.0	0.356	to_board	poldrack-single-stim	s635	False
0.1	362.702	0.369	363.071	0	PA_without_intermediate	test	ward_and_allport	71	38.0	0.369	to_hand	poldrack-single-stim	s635	False
0.1	363.072	0.301	363.373	0	PA_without_intermediate	test	ward_and_allport	89	38.0	0.301	to_board	poldrack-single-stim	s635	False
1.0	363.379	2.0	363.378	0	PA_without_intermediate	test	ward_and_allport	-1	38.0	n/a	feedback	poldrack-single-stim	s635	False
2.303	365.387	2.303	367.69	1	PA_without_intermediate	test	ward_and_allport	82	39.0	2.303	to_hand	poldrack-single-stim	s635	False
0.1	367.691	0.397	368.088	0	PA_without_intermediate	test	ward_and_allport	71	39.0	0.397	to_board	poldrack-single-stim	s635	False
0.1	368.095	1.161	369.256	0	PA_without_intermediate	test	ward_and_allport	82	39.0	1.161	to_hand	poldrack-single-stim	s635	False
0.1	369.258	0.365	369.623	0	PA_without_intermediate	test	ward_and_allport	89	39.0	0.365	to_board	poldrack-single-stim	s635	False
0.1	369.634	1.882	371.516	0	PA_without_intermediate	test	ward_and_allport	82	39.0	1.882	to_hand	poldrack-single-stim	s635	False
0.1	371.518	0.312	371.83	0	PA_without_intermediate	test	ward_and_allport	71	39.0	0.312	to_board	poldrack-single-stim	s635	False
1.0	371.841	2.0	371.84	0	PA_without_intermediate	test	ward_and_allport	-1	39.0	n/a	feedback	poldrack-single-stim	s635	False
1.432	373.848	1.432	375.28	1	PA_with_intermediate	test	ward_and_allport	82	40.0	1.432	to_hand	poldrack-single-stim	s635	False
0.1	375.281	2.413	377.694	0	PA_with_intermediate	test	ward_and_allport	71	40.0	2.413	to_board	poldrack-single-stim	s635	False
0.1	377.702	0.636	378.338	0	PA_with_intermediate	test	ward_and_allport	82	40.0	0.636	to_hand	poldrack-single-stim	s635	False
0.1	378.339	0.496	378.835	0	PA_with_intermediate	test	ward_and_allport	89	40.0	0.496	to_board	poldrack-single-stim	s635	False
0.1	378.844	0.702	379.546	0	PA_with_intermediate	test	ward_and_allport	71	40.0	0.702	to_hand	poldrack-single-stim	s635	False
0.1	379.547	0.637	380.184	0	PA_with_intermediate	test	ward_and_allport	82	40.0	0.637	to_board	poldrack-single-stim	s635	False
1.0	380.195	2.544	380.194	0	PA_with_intermediate	test	ward_and_allport	-1	40.0	n/a	feedback	poldrack-single-stim	s635	False
2.207	382.747	2.207	384.954	1	PA_without_intermediate	test	ward_and_allport	82	41.0	2.207	to_hand	poldrack-single-stim	s635	False
0.1	384.955	0.406	385.361	0	PA_without_intermediate	test	ward_and_allport	89	41.0	0.406	to_board	poldrack-single-stim	s635	False
0.1	385.368	0.461	385.829	0	PA_without_intermediate	test	ward_and_allport	82	41.0	0.461	to_hand	poldrack-single-stim	s635	False
0.1	385.83	0.38	386.21	0	PA_without_intermediate	test	ward_and_allport	89	41.0	0.38	to_board	poldrack-single-stim	s635	False
0.1	386.22	0.673	386.893	0	PA_without_intermediate	test	ward_and_allport	82	41.0	0.673	to_hand	poldrack-single-stim	s635	False
0.1	386.894	0.375	387.269	0	PA_without_intermediate	test	ward_and_allport	71	41.0	0.375	to_board	poldrack-single-stim	s635	False
1.0	387.278	2.272	387.277	0	PA_without_intermediate	test	ward_and_allport	-1	41.0	n/a	feedback	poldrack-single-stim	s635	False
2.506	389.557	2.506	392.063	1	PA_with_intermediate	test	ward_and_allport	71	42.0	2.506	to_hand	poldrack-single-stim	s635	False
0.1	392.064	0.708	392.772	0	PA_with_intermediate	test	ward_and_allport	82	42.0	0.708	to_board	poldrack-single-stim	s635	False
0.1	392.78	0.796	393.576	0	PA_with_intermediate	test	ward_and_allport	71	42.0	0.796	to_hand	poldrack-single-stim	s635	False
0.1	393.577	0.376	393.953	0	PA_with_intermediate	test	ward_and_allport	89	42.0	0.376	to_board	poldrack-single-stim	s635	False
0.1	393.964	0.465	394.429	0	PA_with_intermediate	test	ward_and_allport	82	42.0	0.465	to_hand	poldrack-single-stim	s635	False
0.1	394.431	0.262	394.693	0	PA_with_intermediate	test	ward_and_allport	89	42.0	0.262	to_board	poldrack-single-stim	s635	False
1.0	394.702	4.04	394.701	0	PA_with_intermediate	test	ward_and_allport	-1	42.0	n/a	feedback	poldrack-single-stim	s635	False
1.6	398.749	1.6	400.349	1	PA_with_intermediate	test	ward_and_allport	71	43.0	1.6	to_hand	poldrack-single-stim	s635	False
0.1	400.35	0.309	400.659	0	PA_with_intermediate	test	ward_and_allport	89	43.0	0.309	to_board	poldrack-single-stim	s635	False
0.1	400.666	1.061	401.727	0	PA_with_intermediate	test	ward_and_allport	71	43.0	1.061	to_hand	poldrack-single-stim	s635	False
0.1	401.728	0.504	402.232	0	PA_with_intermediate	test	ward_and_allport	82	43.0	0.504	to_board	poldrack-single-stim	s635	False
0.1	402.241	0.46	402.701	0	PA_with_intermediate	test	ward_and_allport	89	43.0	0.46	to_hand	poldrack-single-stim	s635	False
0.1	402.702	0.451	403.153	0	PA_with_intermediate	test	ward_and_allport	82	43.0	0.451	to_board	poldrack-single-stim	s635	False
1.0	403.165	2.272	403.164	0	PA_with_intermediate	test	ward_and_allport	-1	43.0	n/a	feedback	poldrack-single-stim	s635	False
1.638	405.451	1.638	407.089	1	PA_with_intermediate	test	ward_and_allport	71	44.0	1.638	to_hand	poldrack-single-stim	s635	False
0.1	407.09	3.155	410.245	0	PA_with_intermediate	test	ward_and_allport	82	44.0	3.155	to_board	poldrack-single-stim	s635	False
0.1	410.255	1.608	411.863	0	PA_with_intermediate	test	ward_and_allport	71	44.0	1.608	to_hand	poldrack-single-stim	s635	False
0.1	411.865	1.175	413.04	0	PA_with_intermediate	test	ward_and_allport	89	44.0	1.175	to_board	poldrack-single-stim	s635	False
0.1	413.051	1.382	414.433	0	PA_with_intermediate	test	ward_and_allport	82	44.0	1.382	to_hand	poldrack-single-stim	s635	False
0.1	414.434	0.404	414.838	0	PA_with_intermediate	test	ward_and_allport	71	44.0	0.404	to_board	poldrack-single-stim	s635	False
1.0	414.85	2.136	414.849	0	PA_with_intermediate	test	ward_and_allport	-1	44.0	n/a	feedback	poldrack-single-stim	s635	False
1.85	421.997	1.85	423.847	1	PA_with_intermediate	test	ward_and_allport	82	45.0	1.85	to_hand	poldrack-single-stim	s635	False
0.1	423.848	1.057	424.905	0	PA_with_intermediate	test	ward_and_allport	71	45.0	1.057	to_board	poldrack-single-stim	s635	False
0.1	424.916	0.578	425.494	0	PA_with_intermediate	test	ward_and_allport	82	45.0	0.578	to_hand	poldrack-single-stim	s635	False
0.1	425.495	0.486	425.981	0	PA_with_intermediate	test	ward_and_allport	89	45.0	0.486	to_board	poldrack-single-stim	s635	False
0.1	425.993	1.197	427.19	0	PA_with_intermediate	test	ward_and_allport	71	45.0	1.197	to_hand	poldrack-single-stim	s635	False
0.1	427.191	0.382	427.573	0	PA_with_intermediate	test	ward_and_allport	82	45.0	0.382	to_board	poldrack-single-stim	s635	False
1.0	427.585	2.0	427.584	0	PA_with_intermediate	test	ward_and_allport	-1	45.0	n/a	feedback	poldrack-single-stim	s635	False
3.906	429.596	3.906	433.502	1	PA_with_intermediate	test	ward_and_allport	71	46.0	3.906	to_hand	poldrack-single-stim	s635	False
0.1	433.503	0.377	433.88	0	PA_with_intermediate	test	ward_and_allport	82	46.0	0.377	to_board	poldrack-single-stim	s635	False
0.1	433.887	1.21	435.097	0	PA_with_intermediate	test	ward_and_allport	71	46.0	1.21	to_hand	poldrack-single-stim	s635	False
0.1	435.098	0.704	435.802	0	PA_with_intermediate	test	ward_and_allport	89	46.0	0.704	to_board	poldrack-single-stim	s635	False
0.1	435.813	0.641	436.454	0	PA_with_intermediate	test	ward_and_allport	71	46.0	0.641	to_hand	poldrack-single-stim	s635	False
0.1	436.455	0.539	436.994	0	PA_with_intermediate	test	ward_and_allport	89	46.0	0.539	to_board	poldrack-single-stim	s635	False
0.1	437.006	2.66	439.666	0	PA_with_intermediate	test	ward_and_allport	89	46.0	2.66	to_hand	poldrack-single-stim	s635	False
0.1	439.668	0.37	440.038	0	PA_with_intermediate	test	ward_and_allport	71	46.0	0.37	to_board	poldrack-single-stim	s635	False
0.1	440.048	0.666	440.714	0	PA_with_intermediate	test	ward_and_allport	82	46.0	0.666	to_hand	poldrack-single-stim	s635	False
0.1	440.715	0.311	441.026	0	PA_with_intermediate	test	ward_and_allport	89	46.0	0.311	to_board	poldrack-single-stim	s635	False
1.0	441.036	2.0	441.035	0	PA_with_intermediate	test	ward_and_allport	-1	46.0	n/a	feedback	poldrack-single-stim	s635	False
5.212	443.043	5.212	448.255	1	PA_without_intermediate	test	ward_and_allport	89	47.0	5.212	to_hand	poldrack-single-stim	s635	False
0.1	448.256	0.385	448.641	0	PA_without_intermediate	test	ward_and_allport	82	47.0	0.385	to_board	poldrack-single-stim	s635	False
0.1	448.65	0.48	449.13	0	PA_without_intermediate	test	ward_and_allport	89	47.0	0.48	to_hand	poldrack-single-stim	s635	False
0.1	449.131	0.392	449.523	0	PA_without_intermediate	test	ward_and_allport	82	47.0	0.392	to_board	poldrack-single-stim	s635	False
0.1	449.534	0.44	449.974	0	PA_without_intermediate	test	ward_and_allport	89	47.0	0.44	to_hand	poldrack-single-stim	s635	False
0.1	449.975	0.378	450.353	0	PA_without_intermediate	test	ward_and_allport	71	47.0	0.378	to_board	poldrack-single-stim	s635	False
1.0	450.367	2.408	450.366	0	PA_without_intermediate	test	ward_and_allport	-1	47.0	n/a	feedback	poldrack-single-stim	s635	False
