onset	duration	movement_onset	block_duration	condition	correct	correct_response	experiment_exp_id	key_press	response_time	trial_id	trial_type	worker_id	junk
3.022	0.5	3.021	0.5	BY	n/a	n/a	dot_pattern_expectancy	-1.0	n/a	cue	BY	s636	False
5.532	0.5	6.179	1.636	BY	1.0	71.0	dot_pattern_expectancy	71.0	0.647	probe	BY	s636	False
7.174	0.5	7.173	0.5	AY	n/a	n/a	dot_pattern_expectancy	-1.0	n/a	cue	AY	s636	False
9.685	0.5	10.368	1.5	AY	1.0	71.0	dot_pattern_expectancy	71.0	0.683	probe	AY	s636	False
11.19	0.5	11.189	0.5	AX	n/a	n/a	dot_pattern_expectancy	-1.0	n/a	cue	AX	s636	False
13.702	0.5	14.166	2.044	AX	1.0	89.0	dot_pattern_expectancy	89.0	0.464	probe	AX	s636	False
15.752	0.5	15.751	0.5	BY	n/a	n/a	dot_pattern_expectancy	-1.0	n/a	cue	BY	s636	False
18.263	0.5	18.627	1.772	BY	1.0	71.0	dot_pattern_expectancy	71.0	0.364	probe	BY	s636	False
20.041	0.5	20.04	0.5	BX	n/a	n/a	dot_pattern_expectancy	-1.0	n/a	cue	BX	s636	False
22.55	0.5	22.914	1.636	BX	1.0	71.0	dot_pattern_expectancy	71.0	0.364	probe	BX	s636	False
24.192	0.5	24.191	0.5	AX	n/a	n/a	dot_pattern_expectancy	-1.0	n/a	cue	AX	s636	False
26.704	0.5	27.175	1.636	AX	1.0	89.0	dot_pattern_expectancy	89.0	0.471	probe	AX	s636	False
28.346	0.5	28.345	0.5	AX	n/a	n/a	dot_pattern_expectancy	-1.0	n/a	cue	AX	s636	False
30.856	0.5	31.355	1.5	AX	1.0	89.0	dot_pattern_expectancy	89.0	0.499	probe	AX	s636	False
32.361	0.5	32.36	0.5	AX	n/a	n/a	dot_pattern_expectancy	-1.0	n/a	cue	AX	s636	False
34.873	0.5	35.329	1.5	AX	1.0	89.0	dot_pattern_expectancy	89.0	0.456	probe	AX	s636	False
36.378	0.5	36.377	0.5	AY	n/a	n/a	dot_pattern_expectancy	-1.0	n/a	cue	AY	s636	False
38.888	0.5	39.635	2.044	AY	1.0	71.0	dot_pattern_expectancy	71.0	0.747	probe	AY	s636	False
40.937	0.5	40.936	0.5	AX	n/a	n/a	dot_pattern_expectancy	-1.0	n/a	cue	AX	s636	False
43.448	0.5	44.233	2.452	AX	1.0	89.0	dot_pattern_expectancy	89.0	0.785	probe	AX	s636	False
45.905	0.5	45.904	0.5	AX	n/a	n/a	dot_pattern_expectancy	-1.0	n/a	cue	AX	s636	False
48.413	0.5	49.264	1.908	AX	1.0	89.0	dot_pattern_expectancy	89.0	0.851	probe	AX	s636	False
50.326	0.5	50.325	0.5	AX	n/a	n/a	dot_pattern_expectancy	-1.0	n/a	cue	AX	s636	False
52.837	0.5	53.439	1.5	AX	1.0	89.0	dot_pattern_expectancy	89.0	0.602	probe	AX	s636	False
54.342	0.5	54.341	0.5	AX	n/a	n/a	dot_pattern_expectancy	-1.0	n/a	cue	AX	s636	False
56.854	0.5	57.417	1.908	AX	1.0	89.0	dot_pattern_expectancy	89.0	0.563	probe	AX	s636	False
58.768	0.5	58.767	0.5	BX	n/a	n/a	dot_pattern_expectancy	-1.0	n/a	cue	BX	s636	False
61.278	0.5	61.664	2.18	BX	1.0	71.0	dot_pattern_expectancy	71.0	0.386	probe	BX	s636	False
63.463	0.5	63.462	0.5	AX	n/a	n/a	dot_pattern_expectancy	-1.0	n/a	cue	AX	s636	False
65.972	0.5	66.687	1.5	AX	1.0	89.0	dot_pattern_expectancy	89.0	0.715	probe	AX	s636	False
67.477	0.5	67.476	0.5	BY	n/a	n/a	dot_pattern_expectancy	-1.0	n/a	cue	BY	s636	False
69.987	0.5	70.435	1.908	BY	1.0	71.0	dot_pattern_expectancy	71.0	0.448	probe	BY	s636	False
71.902	0.5	71.901	0.5	BX	n/a	n/a	dot_pattern_expectancy	-1.0	n/a	cue	BX	s636	False
74.411	0.5	74.999	2.316	BX	1.0	71.0	dot_pattern_expectancy	71.0	0.588	probe	BX	s636	False
76.732	0.5	76.731	0.5	AY	n/a	n/a	dot_pattern_expectancy	-1.0	n/a	cue	AY	s636	False
79.243	0.5	80.06	2.316	AY	1.0	71.0	dot_pattern_expectancy	71.0	0.817	probe	AY	s636	False
81.566	0.5	81.565	0.5	BX	n/a	n/a	dot_pattern_expectancy	-1.0	n/a	cue	BX	s636	False
84.073	0.5	84.831	1.636	BX	1.0	71.0	dot_pattern_expectancy	71.0	0.758	probe	BX	s636	False
85.716	0.5	85.715	0.5	AY	n/a	n/a	dot_pattern_expectancy	-1.0	n/a	cue	AY	s636	False
88.226	0.5	89.467	1.5	AY	1.0	71.0	dot_pattern_expectancy	71.0	1.241	probe	AY	s636	False
89.732	0.5	89.731	0.5	BY	n/a	n/a	dot_pattern_expectancy	-1.0	n/a	cue	BY	s636	False
92.243	0.5	93.038	1.908	BY	1.0	71.0	dot_pattern_expectancy	71.0	0.795	probe	BY	s636	False
94.156	0.5	94.155	0.5	AX	n/a	n/a	dot_pattern_expectancy	-1.0	n/a	cue	AX	s636	False
96.668	0.5	97.081	1.5	AX	1.0	89.0	dot_pattern_expectancy	89.0	0.413	probe	AX	s636	False
98.173	0.5	98.172	0.5	AY	n/a	n/a	dot_pattern_expectancy	-1.0	n/a	cue	AY	s636	False
100.681	0.5	101.481	2.316	AY	1.0	71.0	dot_pattern_expectancy	71.0	0.8	probe	AY	s636	False
103.002	0.5	103.001	0.5	AX	n/a	n/a	dot_pattern_expectancy	-1.0	n/a	cue	AX	s636	False
105.513	0.5	106.849	1.5	AX	1.0	89.0	dot_pattern_expectancy	89.0	1.336	probe	AX	s636	False
107.018	0.5	107.017	0.5	AY	n/a	n/a	dot_pattern_expectancy	-1.0	n/a	cue	AY	s636	False
109.53	0.5	110.24	2.724	AY	1.0	71.0	dot_pattern_expectancy	71.0	0.71	probe	AY	s636	False
112.26	0.5	112.259	0.5	AX	n/a	n/a	dot_pattern_expectancy	-1.0	n/a	cue	AX	s636	False
114.771	0.5	115.397	1.5	AX	1.0	89.0	dot_pattern_expectancy	89.0	0.626	probe	AX	s636	False
116.276	0.5	116.275	0.5	AX	n/a	n/a	dot_pattern_expectancy	-1.0	n/a	cue	AX	s636	False
118.788	0.5	119.505	1.636	AX	1.0	89.0	dot_pattern_expectancy	89.0	0.717	probe	AX	s636	False
120.431	0.5	120.43	0.5	AX	n/a	n/a	dot_pattern_expectancy	-1.0	n/a	cue	AX	s636	False
122.94	0.5	123.611	1.636	AX	1.0	89.0	dot_pattern_expectancy	89.0	0.671	probe	AX	s636	False
124.582	0.5	124.581	0.5	AX	n/a	n/a	dot_pattern_expectancy	-1.0	n/a	cue	AX	s636	False
127.093	0.5	127.599	1.772	AX	1.0	89.0	dot_pattern_expectancy	89.0	0.506	probe	AX	s636	False
128.872	0.5	128.871	0.5	BY	n/a	n/a	dot_pattern_expectancy	-1.0	n/a	cue	BY	s636	False
131.383	0.5	131.955	1.772	BY	1.0	71.0	dot_pattern_expectancy	71.0	0.572	probe	BY	s636	False
133.161	0.5	133.16	0.5	AX	n/a	n/a	dot_pattern_expectancy	-1.0	n/a	cue	AX	s636	False
135.672	0.5	136.318	1.5	AX	1.0	89.0	dot_pattern_expectancy	89.0	0.646	probe	AX	s636	False
137.177	0.5	137.176	0.5	BY	n/a	n/a	dot_pattern_expectancy	-1.0	n/a	cue	BY	s636	False
139.686	0.5	140.154	2.452	BY	1.0	71.0	dot_pattern_expectancy	71.0	0.468	probe	BY	s636	False
142.143	0.5	142.142	0.5	AX	n/a	n/a	dot_pattern_expectancy	-1.0	n/a	cue	AX	s636	False
144.655	0.5	145.29	1.636	AX	1.0	89.0	dot_pattern_expectancy	89.0	0.635	probe	AX	s636	False
146.297	0.5	146.296	0.5	AX	n/a	n/a	dot_pattern_expectancy	-1.0	n/a	cue	AX	s636	False
148.808	0.5	149.47	1.636	AX	1.0	89.0	dot_pattern_expectancy	89.0	0.662	probe	AX	s636	False
150.451	0.5	150.45	0.5	BX	n/a	n/a	dot_pattern_expectancy	-1.0	n/a	cue	BX	s636	False
152.961	0.5	153.251	1.5	BX	1.0	71.0	dot_pattern_expectancy	71.0	0.29	probe	BX	s636	False
154.466	0.5	154.465	0.5	BX	n/a	n/a	dot_pattern_expectancy	-1.0	n/a	cue	BX	s636	False
156.975	0.5	157.511	1.5	BX	1.0	71.0	dot_pattern_expectancy	71.0	0.536	probe	BX	s636	False
158.479	0.5	158.478	0.5	AX	n/a	n/a	dot_pattern_expectancy	-1.0	n/a	cue	AX	s636	False
160.99	0.5	161.48	2.316	AX	1.0	89.0	dot_pattern_expectancy	89.0	0.49	probe	AX	s636	False
163.313	0.5	163.312	0.5	AY	n/a	n/a	dot_pattern_expectancy	-1.0	n/a	cue	AY	s636	False
165.824	0.5	166.58	2.044	AY	1.0	71.0	dot_pattern_expectancy	71.0	0.756	probe	AY	s636	False
167.875	0.5	167.874	0.5	AX	n/a	n/a	dot_pattern_expectancy	-1.0	n/a	cue	AX	s636	False
170.383	0.5	171.074	3.948	AX	1.0	89.0	dot_pattern_expectancy	89.0	0.691	probe	AX	s636	False
174.336	0.5	174.335	0.5	AX	n/a	n/a	dot_pattern_expectancy	-1.0	n/a	cue	AX	s636	False
176.845	0.5	177.274	1.636	AX	1.0	89.0	dot_pattern_expectancy	89.0	0.429	probe	AX	s636	False
189.004	0.5	189.003	0.5	AY	n/a	n/a	dot_pattern_expectancy	-1.0	n/a	cue	AY	s636	False
191.511	0.5	192.29	1.636	AY	1.0	71.0	dot_pattern_expectancy	71.0	0.779	probe	AY	s636	False
193.154	0.5	193.153	0.5	AX	n/a	n/a	dot_pattern_expectancy	-1.0	n/a	cue	AX	s636	False
195.663	0.5	196.901	1.636	AX	1.0	89.0	dot_pattern_expectancy	89.0	1.238	probe	AX	s636	False
197.304	0.5	197.303	0.5	AX	n/a	n/a	dot_pattern_expectancy	-1.0	n/a	cue	AX	s636	False
199.813	0.5	200.416	1.5	AX	1.0	89.0	dot_pattern_expectancy	89.0	0.603	probe	AX	s636	False
201.319	0.5	201.318	0.5	AX	n/a	n/a	dot_pattern_expectancy	-1.0	n/a	cue	AX	s636	False
203.829	0.5	204.4	1.5	AX	1.0	89.0	dot_pattern_expectancy	89.0	0.571	probe	AX	s636	False
205.334	0.5	205.333	0.5	AX	n/a	n/a	dot_pattern_expectancy	-1.0	n/a	cue	AX	s636	False
207.846	0.5	208.246	1.908	AX	1.0	89.0	dot_pattern_expectancy	89.0	0.4	probe	AX	s636	False
209.76	0.5	209.759	0.5	BX	n/a	n/a	dot_pattern_expectancy	-1.0	n/a	cue	BX	s636	False
212.269	0.5	212.827	1.636	BX	1.0	71.0	dot_pattern_expectancy	71.0	0.558	probe	BX	s636	False
213.91	0.5	213.909	0.5	AX	n/a	n/a	dot_pattern_expectancy	-1.0	n/a	cue	AX	s636	False
216.422	0.5	217.15	2.044	AX	1.0	89.0	dot_pattern_expectancy	89.0	0.728	probe	AX	s636	False
218.469	0.5	218.468	0.5	AX	n/a	n/a	dot_pattern_expectancy	-1.0	n/a	cue	AX	s636	False
220.978	0.5	221.538	1.772	AX	1.0	89.0	dot_pattern_expectancy	89.0	0.56	probe	AX	s636	False
222.755	0.5	222.754	0.5	AX	n/a	n/a	dot_pattern_expectancy	-1.0	n/a	cue	AX	s636	False
225.267	0.5	225.817	1.5	AX	1.0	89.0	dot_pattern_expectancy	89.0	0.55	probe	AX	s636	False
226.772	0.5	226.771	0.5	AX	n/a	n/a	dot_pattern_expectancy	-1.0	n/a	cue	AX	s636	False
229.283	0.5	229.893	2.18	AX	1.0	89.0	dot_pattern_expectancy	89.0	0.61	probe	AX	s636	False
231.468	0.5	231.467	0.5	AX	n/a	n/a	dot_pattern_expectancy	-1.0	n/a	cue	AX	s636	False
233.979	0.5	234.373	1.5	AX	1.0	89.0	dot_pattern_expectancy	89.0	0.394	probe	AX	s636	False
235.481	0.5	235.48	0.5	BX	n/a	n/a	dot_pattern_expectancy	-1.0	n/a	cue	BX	s636	False
237.991	0.5	238.557	3.676	BX	1.0	71.0	dot_pattern_expectancy	71.0	0.566	probe	BX	s636	False
241.672	0.5	241.671	0.5	BY	n/a	n/a	dot_pattern_expectancy	-1.0	n/a	cue	BY	s636	False
244.181	0.5	244.586	1.636	BY	1.0	71.0	dot_pattern_expectancy	71.0	0.405	probe	BY	s636	False
245.822	0.5	245.821	0.5	BY	n/a	n/a	dot_pattern_expectancy	-1.0	n/a	cue	BY	s636	False
248.334	0.5	248.789	1.636	BY	1.0	71.0	dot_pattern_expectancy	71.0	0.455	probe	BY	s636	False
249.977	0.5	249.976	0.5	BX	n/a	n/a	dot_pattern_expectancy	-1.0	n/a	cue	BX	s636	False
252.486	0.5	252.903	1.5	BX	1.0	71.0	dot_pattern_expectancy	71.0	0.417	probe	BX	s636	False
253.992	0.5	253.991	0.5	AX	n/a	n/a	dot_pattern_expectancy	-1.0	n/a	cue	AX	s636	False
256.498	0.5	257.134	1.908	AX	1.0	89.0	dot_pattern_expectancy	89.0	0.636	probe	AX	s636	False
258.411	0.5	258.41	0.5	AX	n/a	n/a	dot_pattern_expectancy	-1.0	n/a	cue	AX	s636	False
260.92	0.5	261.555	1.636	AX	1.0	89.0	dot_pattern_expectancy	89.0	0.635	probe	AX	s636	False
262.561	0.5	262.56	0.5	BX	n/a	n/a	dot_pattern_expectancy	-1.0	n/a	cue	BX	s636	False
265.07	0.5	265.456	1.5	BX	1.0	71.0	dot_pattern_expectancy	71.0	0.386	probe	BX	s636	False
266.577	0.5	266.576	0.5	AX	n/a	n/a	dot_pattern_expectancy	-1.0	n/a	cue	AX	s636	False
269.087	0.5	269.659	1.908	AX	1.0	89.0	dot_pattern_expectancy	89.0	0.572	probe	AX	s636	False
271.0	0.5	270.999	0.5	BY	n/a	n/a	dot_pattern_expectancy	-1.0	n/a	cue	BY	s636	False
273.511	0.5	274.027	2.18	BY	1.0	71.0	dot_pattern_expectancy	71.0	0.516	probe	BY	s636	False
275.696	0.5	275.695	0.5	AX	n/a	n/a	dot_pattern_expectancy	-1.0	n/a	cue	AX	s636	False
278.208	0.5	279.069	1.772	AX	1.0	89.0	dot_pattern_expectancy	89.0	0.861	probe	AX	s636	False
279.986	0.5	279.985	0.5	AX	n/a	n/a	dot_pattern_expectancy	-1.0	n/a	cue	AX	s636	False
282.497	0.5	283.094	1.5	AX	1.0	89.0	dot_pattern_expectancy	89.0	0.597	probe	AX	s636	False
284.002	0.5	284.001	0.5	AX	n/a	n/a	dot_pattern_expectancy	-1.0	n/a	cue	AX	s636	False
286.514	0.5	287.065	1.5	AX	1.0	89.0	dot_pattern_expectancy	89.0	0.551	probe	AX	s636	False
288.019	0.5	288.018	0.5	AX	n/a	n/a	dot_pattern_expectancy	-1.0	n/a	cue	AX	s636	False
290.531	0.5	290.946	2.044	AX	1.0	89.0	dot_pattern_expectancy	89.0	0.415	probe	AX	s636	False
292.581	0.5	292.58	0.5	AX	n/a	n/a	dot_pattern_expectancy	-1.0	n/a	cue	AX	s636	False
295.09	0.5	295.444	2.86	AX	1.0	89.0	dot_pattern_expectancy	89.0	0.354	probe	AX	s636	False
297.957	0.5	297.956	0.5	BX	n/a	n/a	dot_pattern_expectancy	-1.0	n/a	cue	BX	s636	False
300.467	0.5	300.78	1.5	BX	1.0	71.0	dot_pattern_expectancy	71.0	0.313	probe	BX	s636	False
301.972	0.5	301.971	0.5	BY	n/a	n/a	dot_pattern_expectancy	-1.0	n/a	cue	BY	s636	False
304.483	0.5	306.133	1.772	BY	1.0	71.0	dot_pattern_expectancy	71.0	1.65	probe	BY	s636	False
306.262	0.5	306.261	0.5	AX	n/a	n/a	dot_pattern_expectancy	-1.0	n/a	cue	AX	s636	False
308.773	0.5	309.343	1.772	AX	1.0	89.0	dot_pattern_expectancy	89.0	0.57	probe	AX	s636	False
310.55	0.5	310.549	0.5	AX	n/a	n/a	dot_pattern_expectancy	-1.0	n/a	cue	AX	s636	False
313.06	0.5	313.509	2.86	AX	1.0	89.0	dot_pattern_expectancy	89.0	0.449	probe	AX	s636	False
315.926	0.5	315.925	0.5	AX	n/a	n/a	dot_pattern_expectancy	-1.0	n/a	cue	AX	s636	False
318.437	0.5	318.95	1.772	AX	1.0	89.0	dot_pattern_expectancy	89.0	0.513	probe	AX	s636	False
320.215	0.5	320.214	0.5	BX	n/a	n/a	dot_pattern_expectancy	-1.0	n/a	cue	BX	s636	False
322.724	0.5	323.122	1.636	BX	1.0	71.0	dot_pattern_expectancy	71.0	0.398	probe	BX	s636	False
324.366	0.5	324.365	0.5	BX	n/a	n/a	dot_pattern_expectancy	-1.0	n/a	cue	BX	s636	False
326.876	0.5	327.928	2.452	BX	1.0	71.0	dot_pattern_expectancy	71.0	1.052	probe	BX	s636	False
329.332	0.5	329.331	0.5	AX	n/a	n/a	dot_pattern_expectancy	-1.0	n/a	cue	AX	s636	False
331.841	0.5	332.245	1.636	AX	1.0	89.0	dot_pattern_expectancy	89.0	0.404	probe	AX	s636	False
333.484	0.5	333.483	0.5	BX	n/a	n/a	dot_pattern_expectancy	-1.0	n/a	cue	BX	s636	False
335.995	0.5	336.694	1.5	BX	1.0	71.0	dot_pattern_expectancy	71.0	0.699	probe	BX	s636	False
337.5	0.5	337.499	0.5	AX	n/a	n/a	dot_pattern_expectancy	-1.0	n/a	cue	AX	s636	False
340.006	0.5	340.749	1.636	AX	1.0	89.0	dot_pattern_expectancy	89.0	0.743	probe	AX	s636	False
341.649	0.5	341.648	0.5	AX	n/a	n/a	dot_pattern_expectancy	-1.0	n/a	cue	AX	s636	False
344.159	0.5	344.809	1.636	AX	1.0	89.0	dot_pattern_expectancy	89.0	0.65	probe	AX	s636	False
345.8	0.5	345.799	0.5	BY	n/a	n/a	dot_pattern_expectancy	-1.0	n/a	cue	BY	s636	False
348.311	0.5	348.605	2.18	BY	1.0	71.0	dot_pattern_expectancy	71.0	0.294	probe	BY	s636	False
350.496	0.5	350.495	0.5	AX	n/a	n/a	dot_pattern_expectancy	-1.0	n/a	cue	AX	s636	False
353.007	0.5	353.879	1.5	AX	1.0	89.0	dot_pattern_expectancy	89.0	0.872	probe	AX	s636	False
354.513	0.5	354.512	0.5	AY	n/a	n/a	dot_pattern_expectancy	-1.0	n/a	cue	AY	s636	False
357.021	0.5	358.278	1.636	AY	1.0	71.0	dot_pattern_expectancy	71.0	1.257	probe	AY	s636	False
358.663	0.5	358.662	0.5	AX	n/a	n/a	dot_pattern_expectancy	-1.0	n/a	cue	AX	s636	False
361.175	0.5	361.925	1.636	AX	1.0	89.0	dot_pattern_expectancy	89.0	0.75	probe	AX	s636	False
373.33	0.5	373.329	0.5	AX	n/a	n/a	dot_pattern_expectancy	-1.0	n/a	cue	AX	s636	False
375.84	0.5	376.284	2.18	AX	1.0	89.0	dot_pattern_expectancy	89.0	0.444	probe	AX	s636	False
378.026	0.5	378.025	0.5	AY	n/a	n/a	dot_pattern_expectancy	-1.0	n/a	cue	AY	s636	False
380.533	0.5	381.751	2.316	AY	1.0	71.0	dot_pattern_expectancy	71.0	1.218	probe	AY	s636	False
382.855	0.5	382.854	0.5	AY	n/a	n/a	dot_pattern_expectancy	-1.0	n/a	cue	AY	s636	False
385.367	0.5	386.137	1.636	AY	1.0	71.0	dot_pattern_expectancy	71.0	0.77	probe	AY	s636	False
387.009	0.5	387.008	0.5	BX	n/a	n/a	dot_pattern_expectancy	-1.0	n/a	cue	BX	s636	False
389.519	0.5	390.908	1.908	BX	1.0	71.0	dot_pattern_expectancy	71.0	1.389	probe	BX	s636	False
391.434	0.5	391.433	0.5	AX	n/a	n/a	dot_pattern_expectancy	-1.0	n/a	cue	AX	s636	False
393.945	0.5	394.4	3.54	AX	1.0	89.0	dot_pattern_expectancy	89.0	0.455	probe	AX	s636	False
397.492	0.5	397.491	0.5	BX	n/a	n/a	dot_pattern_expectancy	-1.0	n/a	cue	BX	s636	False
400.002	0.5	400.388	1.636	BX	1.0	71.0	dot_pattern_expectancy	71.0	0.386	probe	BX	s636	False
401.643	0.5	401.642	0.5	BY	n/a	n/a	dot_pattern_expectancy	-1.0	n/a	cue	BY	s636	False
404.154	0.5	404.557	1.5	BY	1.0	71.0	dot_pattern_expectancy	71.0	0.403	probe	BY	s636	False
405.661	0.5	405.66	0.5	AX	n/a	n/a	dot_pattern_expectancy	-1.0	n/a	cue	AX	s636	False
408.171	0.5	409.373	1.5	AX	1.0	89.0	dot_pattern_expectancy	89.0	1.202	probe	AX	s636	False
409.676	0.5	409.675	0.5	AX	n/a	n/a	dot_pattern_expectancy	-1.0	n/a	cue	AX	s636	False
412.187	0.5	412.783	1.772	AX	1.0	89.0	dot_pattern_expectancy	89.0	0.596	probe	AX	s636	False
413.965	0.5	413.964	0.5	BY	n/a	n/a	dot_pattern_expectancy	-1.0	n/a	cue	BY	s636	False
416.477	0.5	417.316	2.452	BY	1.0	71.0	dot_pattern_expectancy	71.0	0.839	probe	BY	s636	False
418.935	0.5	418.934	0.5	AX	n/a	n/a	dot_pattern_expectancy	-1.0	n/a	cue	AX	s636	False
421.444	0.5	422.26	1.908	AX	1.0	89.0	dot_pattern_expectancy	89.0	0.816	probe	AX	s636	False
423.357	0.5	423.356	0.5	BX	n/a	n/a	dot_pattern_expectancy	-1.0	n/a	cue	BX	s636	False
425.866	0.5	426.873	1.636	BX	1.0	71.0	dot_pattern_expectancy	71.0	1.007	probe	BX	s636	False
427.507	0.5	427.506	0.5	AX	n/a	n/a	dot_pattern_expectancy	-1.0	n/a	cue	AX	s636	False
430.018	0.5	430.939	1.5	AX	1.0	89.0	dot_pattern_expectancy	89.0	0.921	probe	AX	s636	False
431.524	0.5	431.523	0.5	AX	n/a	n/a	dot_pattern_expectancy	-1.0	n/a	cue	AX	s636	False
434.036	0.5	434.646	1.636	AX	1.0	89.0	dot_pattern_expectancy	89.0	0.61	probe	AX	s636	False
435.678	0.5	435.677	0.5	AX	n/a	n/a	dot_pattern_expectancy	-1.0	n/a	cue	AX	s636	False
438.188	0.5	438.789	1.636	AX	1.0	89.0	dot_pattern_expectancy	89.0	0.601	probe	AX	s636	False
439.829	0.5	439.828	0.5	BY	n/a	n/a	dot_pattern_expectancy	-1.0	n/a	cue	BY	s636	False
442.341	0.5	442.721	2.452	BY	1.0	71.0	dot_pattern_expectancy	71.0	0.38	probe	BY	s636	False
444.799	0.5	444.798	0.5	AX	n/a	n/a	dot_pattern_expectancy	-1.0	n/a	cue	AX	s636	False
447.306	0.5	448.003	1.5	AX	1.0	89.0	dot_pattern_expectancy	89.0	0.697	probe	AX	s636	False
448.813	0.5	448.812	0.5	BY	n/a	n/a	dot_pattern_expectancy	-1.0	n/a	cue	BY	s636	False
451.323	0.5	452.058	1.5	BY	1.0	71.0	dot_pattern_expectancy	71.0	0.735	probe	BY	s636	False
452.828	0.5	452.827	0.5	AX	n/a	n/a	dot_pattern_expectancy	-1.0	n/a	cue	AX	s636	False
455.337	0.5	456.107	1.636	AX	1.0	89.0	dot_pattern_expectancy	89.0	0.77	probe	AX	s636	False
456.979	0.5	456.978	0.5	AX	n/a	n/a	dot_pattern_expectancy	-1.0	n/a	cue	AX	s636	False
459.49	0.5	460.291	1.636	AX	1.0	89.0	dot_pattern_expectancy	89.0	0.801	probe	AX	s636	False
461.131	0.5	461.13	0.5	AY	n/a	n/a	dot_pattern_expectancy	-1.0	n/a	cue	AY	s636	False
463.643	0.5	464.322	1.636	AY	1.0	71.0	dot_pattern_expectancy	71.0	0.679	probe	AY	s636	False
465.284	0.5	465.283	0.5	AX	n/a	n/a	dot_pattern_expectancy	-1.0	n/a	cue	AX	s636	False
467.796	0.5	468.263	1.5	AX	1.0	89.0	dot_pattern_expectancy	89.0	0.467	probe	AX	s636	False
469.301	0.5	469.3	0.5	AX	n/a	n/a	dot_pattern_expectancy	-1.0	n/a	cue	AX	s636	False
471.808	0.5	473.074	1.5	AX	1.0	89.0	dot_pattern_expectancy	89.0	1.266	probe	AX	s636	False
473.314	0.5	473.313	0.5	AX	n/a	n/a	dot_pattern_expectancy	-1.0	n/a	cue	AX	s636	False
475.825	0.5	476.512	1.772	AX	1.0	89.0	dot_pattern_expectancy	89.0	0.687	probe	AX	s636	False
477.603	0.5	477.602	0.5	AX	n/a	n/a	dot_pattern_expectancy	-1.0	n/a	cue	AX	s636	False
480.108	0.5	480.902	2.18	AX	1.0	89.0	dot_pattern_expectancy	89.0	0.794	probe	AX	s636	False
482.294	0.5	482.293	0.5	BX	n/a	n/a	dot_pattern_expectancy	-1.0	n/a	cue	BX	s636	False
484.806	0.5	485.166	1.772	BX	1.0	71.0	dot_pattern_expectancy	71.0	0.36	probe	BX	s636	False
486.583	0.5	486.582	0.5	BY	n/a	n/a	dot_pattern_expectancy	-1.0	n/a	cue	BY	s636	False
489.094	0.5	489.573	1.5	BY	1.0	71.0	dot_pattern_expectancy	71.0	0.479	probe	BY	s636	False
490.599	0.5	490.598	0.5	AX	n/a	n/a	dot_pattern_expectancy	-1.0	n/a	cue	AX	s636	False
493.111	0.5	493.918	1.5	AX	1.0	89.0	dot_pattern_expectancy	89.0	0.807	probe	AX	s636	False
494.616	0.5	494.615	0.5	AX	n/a	n/a	dot_pattern_expectancy	-1.0	n/a	cue	AX	s636	False
497.125	0.5	497.745	1.636	AX	1.0	89.0	dot_pattern_expectancy	89.0	0.62	probe	AX	s636	False
498.766	0.5	498.765	0.5	AY	n/a	n/a	dot_pattern_expectancy	-1.0	n/a	cue	AY	s636	False
501.277	0.5	502.008	2.18	AY	1.0	71.0	dot_pattern_expectancy	71.0	0.731	probe	AY	s636	False
503.462	0.5	503.461	0.5	AY	n/a	n/a	dot_pattern_expectancy	-1.0	n/a	cue	AY	s636	False
505.973	0.5	506.861	2.316	AY	1.0	71.0	dot_pattern_expectancy	71.0	0.888	probe	AY	s636	False
508.296	0.5	508.295	0.5	BX	n/a	n/a	dot_pattern_expectancy	-1.0	n/a	cue	BX	s636	False
510.804	0.5	511.425	1.636	BX	1.0	71.0	dot_pattern_expectancy	71.0	0.621	probe	BX	s636	False
512.447	0.5	512.446	0.5	BX	n/a	n/a	dot_pattern_expectancy	-1.0	n/a	cue	BX	s636	False
514.957	0.5	515.425	2.18	BX	1.0	71.0	dot_pattern_expectancy	71.0	0.468	probe	BX	s636	False
517.142	0.5	517.141	0.5	AY	n/a	n/a	dot_pattern_expectancy	-1.0	n/a	cue	AY	s636	False
519.654	0.5	520.494	2.044	AY	1.0	71.0	dot_pattern_expectancy	71.0	0.84	probe	AY	s636	False
521.705	0.5	521.704	0.5	AX	n/a	n/a	dot_pattern_expectancy	-1.0	n/a	cue	AX	s636	False
524.216	0.5	525.044	1.772	AX	1.0	89.0	dot_pattern_expectancy	89.0	0.828	probe	AX	s636	False
525.994	0.5	525.993	0.5	AX	n/a	n/a	dot_pattern_expectancy	-1.0	n/a	cue	AX	s636	False
528.505	0.5	529.706	1.5	AX	1.0	89.0	dot_pattern_expectancy	89.0	1.201	probe	AX	s636	False
530.01	0.5	530.009	0.5	AX	n/a	n/a	dot_pattern_expectancy	-1.0	n/a	cue	AX	s636	False
532.521	0.5	533.428	2.18	AX	1.0	89.0	dot_pattern_expectancy	89.0	0.907	probe	AX	s636	False
534.707	0.5	534.706	0.5	AY	n/a	n/a	dot_pattern_expectancy	-1.0	n/a	cue	AY	s636	False
537.215	0.5	537.909	2.452	AY	1.0	71.0	dot_pattern_expectancy	71.0	0.694	probe	AY	s636	False
539.673	0.5	539.672	0.5	AX	n/a	n/a	dot_pattern_expectancy	-1.0	n/a	cue	AX	s636	False
542.183	0.5	542.786	1.636	AX	1.0	89.0	dot_pattern_expectancy	89.0	0.603	probe	AX	s636	False
543.824	0.5	543.823	0.5	AX	n/a	n/a	dot_pattern_expectancy	-1.0	n/a	cue	AX	s636	False
546.334	0.5	546.901	1.908	AX	1.0	89.0	dot_pattern_expectancy	89.0	0.567	probe	AX	s636	False
558.765	0.5	558.764	0.5	AX	n/a	n/a	dot_pattern_expectancy	-1.0	n/a	cue	AX	s636	False
561.272	0.5	561.834	1.772	AX	1.0	89.0	dot_pattern_expectancy	89.0	0.562	probe	AX	s636	False
563.05	0.5	563.049	0.5	AX	n/a	n/a	dot_pattern_expectancy	-1.0	n/a	cue	AX	s636	False
565.562	0.5	566.108	1.5	AX	1.0	89.0	dot_pattern_expectancy	89.0	0.546	probe	AX	s636	False
567.068	0.5	567.067	0.5	AY	n/a	n/a	dot_pattern_expectancy	-1.0	n/a	cue	AY	s636	False
569.579	0.5	570.288	2.452	AY	1.0	71.0	dot_pattern_expectancy	71.0	0.709	probe	AY	s636	False
572.038	0.5	572.037	0.5	AY	n/a	n/a	dot_pattern_expectancy	-1.0	n/a	cue	AY	s636	False
574.546	0.5	575.445	1.772	AY	1.0	71.0	dot_pattern_expectancy	71.0	0.899	probe	AY	s636	False
576.323	0.5	576.322	0.5	AX	n/a	n/a	dot_pattern_expectancy	-1.0	n/a	cue	AX	s636	False
578.832	0.5	579.638	1.908	AX	1.0	89.0	dot_pattern_expectancy	89.0	0.806	probe	AX	s636	False
580.747	0.5	580.746	0.5	AX	n/a	n/a	dot_pattern_expectancy	-1.0	n/a	cue	AX	s636	False
583.258	0.5	583.905	1.908	AX	1.0	89.0	dot_pattern_expectancy	89.0	0.647	probe	AX	s636	False
585.173	0.5	585.172	0.5	AX	n/a	n/a	dot_pattern_expectancy	-1.0	n/a	cue	AX	s636	False
587.678	0.5	588.32	2.588	AX	1.0	89.0	dot_pattern_expectancy	89.0	0.642	probe	AX	s636	False
590.272	0.5	590.271	0.5	AY	n/a	n/a	dot_pattern_expectancy	-1.0	n/a	cue	AY	s636	False
592.785	0.5	593.544	1.5	AY	1.0	71.0	dot_pattern_expectancy	71.0	0.759	probe	AY	s636	False
594.29	0.5	594.289	0.5	BY	n/a	n/a	dot_pattern_expectancy	-1.0	n/a	cue	BY	s636	False
596.801	0.5	597.394	1.5	BY	1.0	71.0	dot_pattern_expectancy	71.0	0.593	probe	BY	s636	False
598.308	0.5	598.307	0.5	BY	n/a	n/a	dot_pattern_expectancy	-1.0	n/a	cue	BY	s636	False
600.818	0.5	600.817	1.5	BY	0.0	71.0	dot_pattern_expectancy	-1.0	n/a	probe	BY	s636	False
602.32	0.5	602.319	0.5	AX	n/a	n/a	dot_pattern_expectancy	-1.0	n/a	cue	AX	s636	False
604.832	0.5	606.361	1.636	AX	1.0	89.0	dot_pattern_expectancy	89.0	1.529	probe	AX	s636	False
606.475	0.5	606.474	0.5	BX	n/a	n/a	dot_pattern_expectancy	-1.0	n/a	cue	BX	s636	False
608.983	0.5	609.407	2.044	BX	1.0	71.0	dot_pattern_expectancy	71.0	0.424	probe	BX	s636	False
611.032	0.5	611.031	0.5	AX	n/a	n/a	dot_pattern_expectancy	-1.0	n/a	cue	AX	s636	False
613.543	0.5	613.891	1.772	AX	1.0	89.0	dot_pattern_expectancy	89.0	0.348	probe	AX	s636	False
615.321	0.5	615.32	0.5	BX	n/a	n/a	dot_pattern_expectancy	-1.0	n/a	cue	BX	s636	False
617.834	0.5	618.57	2.588	BX	1.0	71.0	dot_pattern_expectancy	71.0	0.736	probe	BX	s636	False
620.429	0.5	620.428	0.5	AY	n/a	n/a	dot_pattern_expectancy	-1.0	n/a	cue	AY	s636	False
622.941	0.5	623.615	1.5	AY	1.0	71.0	dot_pattern_expectancy	71.0	0.674	probe	AY	s636	False
624.443	0.5	624.442	0.5	AX	n/a	n/a	dot_pattern_expectancy	-1.0	n/a	cue	AX	s636	False
626.955	0.5	627.888	2.452	AX	1.0	89.0	dot_pattern_expectancy	89.0	0.933	probe	AX	s636	False
629.413	0.5	629.412	0.5	BY	n/a	n/a	dot_pattern_expectancy	-1.0	n/a	cue	BY	s636	False
631.923	0.5	632.48	1.636	BY	1.0	71.0	dot_pattern_expectancy	71.0	0.557	probe	BY	s636	False
633.564	0.5	633.563	0.5	AX	n/a	n/a	dot_pattern_expectancy	-1.0	n/a	cue	AX	s636	False
636.076	0.5	636.596	1.636	AX	1.0	89.0	dot_pattern_expectancy	89.0	0.52	probe	AX	s636	False
637.719	0.5	637.718	0.5	AX	n/a	n/a	dot_pattern_expectancy	-1.0	n/a	cue	AX	s636	False
640.229	0.5	641.3	1.5	AX	1.0	89.0	dot_pattern_expectancy	89.0	1.071	probe	AX	s636	False
641.734	0.5	641.733	0.5	BY	n/a	n/a	dot_pattern_expectancy	-1.0	n/a	cue	BY	s636	False
644.245	0.5	644.897	1.636	BY	1.0	71.0	dot_pattern_expectancy	71.0	0.652	probe	BY	s636	False
645.887	0.5	645.886	0.5	AX	n/a	n/a	dot_pattern_expectancy	-1.0	n/a	cue	AX	s636	False
648.398	0.5	648.981	1.5	AX	1.0	89.0	dot_pattern_expectancy	89.0	0.583	probe	AX	s636	False
649.904	0.5	649.903	0.5	AY	n/a	n/a	dot_pattern_expectancy	-1.0	n/a	cue	AY	s636	False
652.414	0.5	653.357	2.18	AY	1.0	71.0	dot_pattern_expectancy	71.0	0.943	probe	AY	s636	False
654.599	0.5	654.598	0.5	AX	n/a	n/a	dot_pattern_expectancy	-1.0	n/a	cue	AX	s636	False
657.11	0.5	657.744	1.5	AX	1.0	89.0	dot_pattern_expectancy	89.0	0.634	probe	AX	s636	False
658.615	0.5	658.614	0.5	AX	n/a	n/a	dot_pattern_expectancy	-1.0	n/a	cue	AX	s636	False
661.124	0.5	661.916	1.908	AX	1.0	89.0	dot_pattern_expectancy	89.0	0.792	probe	AX	s636	False
663.038	0.5	663.037	0.5	BY	n/a	n/a	dot_pattern_expectancy	-1.0	n/a	cue	BY	s636	False
665.55	0.5	666.096	1.636	BY	1.0	71.0	dot_pattern_expectancy	71.0	0.546	probe	BY	s636	False
667.193	0.5	667.192	0.5	BY	n/a	n/a	dot_pattern_expectancy	-1.0	n/a	cue	BY	s636	False
669.702	0.5	670.148	1.636	BY	0.0	71.0	dot_pattern_expectancy	89.0	0.446	probe	BY	s636	False
671.344	0.5	671.343	0.5	AX	n/a	n/a	dot_pattern_expectancy	-1.0	n/a	cue	AX	s636	False
673.853	0.5	674.415	1.636	AX	1.0	89.0	dot_pattern_expectancy	89.0	0.562	probe	AX	s636	False
675.494	0.5	675.493	0.5	AX	n/a	n/a	dot_pattern_expectancy	-1.0	n/a	cue	AX	s636	False
678.003	0.5	678.586	1.5	AX	1.0	89.0	dot_pattern_expectancy	89.0	0.583	probe	AX	s636	False
679.505	0.5	679.504	0.5	BY	n/a	n/a	dot_pattern_expectancy	-1.0	n/a	cue	BY	s636	False
682.017	0.5	682.633	2.044	BY	1.0	71.0	dot_pattern_expectancy	71.0	0.616	probe	BY	s636	False
684.066	0.5	684.065	0.5	AY	n/a	n/a	dot_pattern_expectancy	-1.0	n/a	cue	AY	s636	False
686.575	0.5	687.279	2.18	AY	1.0	71.0	dot_pattern_expectancy	71.0	0.704	probe	AY	s636	False
688.762	0.5	688.761	0.5	AY	n/a	n/a	dot_pattern_expectancy	-1.0	n/a	cue	AY	s636	False
691.272	0.5	692.089	1.636	AY	1.0	71.0	dot_pattern_expectancy	71.0	0.817	probe	AY	s636	False
692.913	0.5	692.912	0.5	AY	n/a	n/a	dot_pattern_expectancy	-1.0	n/a	cue	AY	s636	False
695.425	0.5	696.204	1.772	AY	1.0	71.0	dot_pattern_expectancy	71.0	0.779	probe	AY	s636	False
697.202	0.5	697.201	0.5	BY	n/a	n/a	dot_pattern_expectancy	-1.0	n/a	cue	BY	s636	False
699.713	0.5	700.119	1.5	BY	1.0	71.0	dot_pattern_expectancy	71.0	0.406	probe	BY	s636	False
701.22	0.5	701.219	0.5	BX	n/a	n/a	dot_pattern_expectancy	-1.0	n/a	cue	BX	s636	False
703.732	0.5	704.605	1.908	BX	1.0	71.0	dot_pattern_expectancy	71.0	0.873	probe	BX	s636	False
705.647	0.5	705.646	0.5	AX	n/a	n/a	dot_pattern_expectancy	-1.0	n/a	cue	AX	s636	False
708.155	0.5	709.003	2.044	AX	0.0	89.0	dot_pattern_expectancy	71.0	0.848	probe	AX	s636	False
710.204	0.5	710.203	0.5	AX	n/a	n/a	dot_pattern_expectancy	-1.0	n/a	cue	AX	s636	False
712.715	0.5	713.094	1.636	AX	1.0	89.0	dot_pattern_expectancy	89.0	0.379	probe	AX	s636	False
714.357	0.5	714.356	0.5	AX	n/a	n/a	dot_pattern_expectancy	-1.0	n/a	cue	AX	s636	False
716.866	0.5	717.233	1.772	AX	1.0	89.0	dot_pattern_expectancy	89.0	0.367	probe	AX	s636	False
718.645	0.5	718.644	0.5	AX	n/a	n/a	dot_pattern_expectancy	-1.0	n/a	cue	AX	s636	False
721.157	0.5	721.654	1.636	AX	1.0	89.0	dot_pattern_expectancy	89.0	0.497	probe	AX	s636	False
722.799	0.5	722.798	0.5	BX	n/a	n/a	dot_pattern_expectancy	-1.0	n/a	cue	BX	s636	False
725.311	0.5	725.653	1.772	BX	1.0	71.0	dot_pattern_expectancy	71.0	0.342	probe	BX	s636	False
727.088	0.5	727.087	0.5	AX	n/a	n/a	dot_pattern_expectancy	-1.0	n/a	cue	AX	s636	False
729.6	0.5	730.309	1.5	AX	1.0	89.0	dot_pattern_expectancy	89.0	0.709	probe	AX	s636	False
