onset	duration	movement_onset	EV	action	block_duration	experiment_exp_id	gain_amount	gain_probability	key_press	loss_amount	loss_probability	num_cards	num_click_in_round	num_loss_cards	risk	response_time	total_cards	trial_id	trial_type	worker_id	junk	feedback
3.004	1.111	4.115	-0.6829434321659202	draw_card	1.111	columbia_card_task_fmri	12.0	0.8333333333333334	89.0	-70.0	0.1666666666666666	6.0	1.0	1.0	-1.2876900224030052	1.111	n/a	stim	poldrack-single-stim	s636	False	1
4.117	0.497	4.614	-3.4162767654992527	draw_card	0.497	columbia_card_task_fmri	12.0	0.8	89.0	-70.0	0.2	6.0	2.0	1.0	0.9516335830745994	0.497	2.0	stim	poldrack-single-stim	s636	False	0
5.366	1.5	4.615	n/a	-1.0	2.454	columbia_card_task_fmri	n/a	n/a	-1.0	n/a	n/a	n/a	n/a	n/a	n/a	n/a	n/a	ITI	poldrack-single-stim	s636	False	0
7.071	0.601	7.672	0.1503899011674137	draw_card	0.601	columbia_card_task_fmri	14.0	0.8333333333333334	89.0	-75.0	0.1666666666666666	6.0	1.0	1.0	1.319811537709601	0.601	n/a	stim	poldrack-single-stim	s636	False	1
7.673	0.89	8.563	-2.816276765499253	end_round	0.89	columbia_card_task_fmri	14.0	0.8	71.0	-75.0	0.2	6.0	2.0	1.0	3.750474059424338	0.89	1.0	stim	poldrack-single-stim	s636	False	1
9.315	1.5	8.564	n/a	-1.0	2.454	columbia_card_task_fmri	n/a	n/a	-1.0	n/a	n/a	n/a	n/a	n/a	n/a	n/a	n/a	ITI	poldrack-single-stim	s636	False	0
11.02	0.929	11.949	1.81705656783408	draw_card	0.929	columbia_card_task_fmri	15.0	0.8333333333333334	89.0	-70.0	0.1666666666666666	6.0	1.0	1.0	-0.170214433115472	0.929	n/a	stim	poldrack-single-stim	s636	False	1
11.954	0.378	12.332	-1.0162767654992542	draw_card	0.378	columbia_card_task_fmri	15.0	0.8	89.0	-70.0	0.2	6.0	2.0	1.0	2.151113273646576	0.378	n/a	stim	poldrack-single-stim	s636	False	1
12.333	0.437	12.77	-5.266276765499255	end_round	0.437	columbia_card_task_fmri	15.0	0.75	71.0	-70.0	0.25	6.0	3.0	1.0	4.956108595526292	0.437	2.0	stim	poldrack-single-stim	s636	False	1
13.522	1.5	12.771	n/a	-1.0	2.522	columbia_card_task_fmri	n/a	n/a	-1.0	n/a	n/a	n/a	n/a	n/a	n/a	n/a	n/a	ITI	poldrack-single-stim	s636	False	0
15.295	0.589	15.884	2.6503899011674137	draw_card	0.589	columbia_card_task_fmri	17.0	0.8333333333333334	89.0	-75.0	0.1666666666666666	6.0	1.0	1.0	2.4373701382916444	0.589	n/a	stim	poldrack-single-stim	s636	False	1
15.885	0.514	16.399	-0.4162767654992527	draw_card	0.514	columbia_card_task_fmri	17.0	0.8	89.0	-75.0	0.2	6.0	2.0	1.0	4.950031105364612	0.514	n/a	stim	poldrack-single-stim	s636	False	1
16.4	0.911	17.311	-5.016276765499255	draw_card	0.911	columbia_card_task_fmri	17.0	0.75	89.0	-75.0	0.25	6.0	3.0	1.0	7.986197759360241	0.911	n/a	stim	poldrack-single-stim	s636	False	1
17.313	1.356	18.669	-12.68294343216592	end_round	1.356	columbia_card_task_fmri	17.0	0.6666666666666667	71.0	-75.0	0.3333333333333333	6.0	4.0	1.0	11.517256341185938	1.356	3.0	stim	poldrack-single-stim	s636	False	1
19.421	1.5	18.67	n/a	-1.0	2.454	columbia_card_task_fmri	n/a	n/a	-1.0	n/a	n/a	n/a	n/a	n/a	n/a	n/a	n/a	ITI	poldrack-single-stim	s636	False	0
21.127	2.517	23.644	3.983723234500746	draw_card	2.517	columbia_card_task_fmri	24.0	0.75	89.0	-60.0	0.25	8.0	1.0	2.0	4.523252309799677	2.517	n/a	stim	poldrack-single-stim	s636	False	1
23.645	0.625	24.27	0.9837232345007458	draw_card	0.625	columbia_card_task_fmri	24.0	0.7142857142857143	89.0	-60.0	0.2857142857142857	8.0	2.0	2.0	6.096965698480833	0.625	2.0	stim	poldrack-single-stim	s636	False	0
25.022	1.5	24.271	n/a	-1.0	2.658	columbia_card_task_fmri	n/a	n/a	-1.0	n/a	n/a	n/a	n/a	n/a	n/a	n/a	n/a	ITI	poldrack-single-stim	s636	False	0
26.93	0.687	27.617	3.983723234500746	draw_card	0.687	columbia_card_task_fmri	29.0	0.75	89.0	-75.0	0.25	8.0	1.0	2.0	13.18094930905102	0.687	n/a	stim	poldrack-single-stim	s636	False	1
27.62	0.914	28.534	0.2694375202150341	draw_card	0.914	columbia_card_task_fmri	29.0	0.7142857142857143	89.0	-75.0	0.2857142857142857	8.0	2.0	2.0	15.129593679489949	0.914	n/a	stim	poldrack-single-stim	s636	False	1
28.535	1.228	29.763	-4.682943432165919	draw_card	1.228	columbia_card_task_fmri	29.0	0.6666666666666667	89.0	-75.0	0.3333333333333333	8.0	3.0	2.0	17.172823724933036	1.228	n/a	stim	poldrack-single-stim	s636	False	1
29.764	0.734	30.498	-11.616276765499256	end_round	0.734	columbia_card_task_fmri	29.0	0.6	71.0	-75.0	0.4	8.0	4.0	2.0	19.09576775709637	0.734	3.0	stim	poldrack-single-stim	s636	False	1
31.25	1.5	30.499	n/a	-1.0	2.386	columbia_card_task_fmri	n/a	n/a	-1.0	n/a	n/a	n/a	n/a	n/a	n/a	n/a	n/a	ITI	poldrack-single-stim	s636	False	0
32.887	0.662	33.549	-0.2384989877214738	draw_card	0.662	columbia_card_task_fmri	17.0	0.7777777777777778	89.0	-65.0	0.2222222222222222	9.0	1.0	2.0	2.241731643758346	0.662	n/a	stim	poldrack-single-stim	s636	False	1
33.551	0.686	34.237	-2.516276765499254	draw_card	0.686	columbia_card_task_fmri	17.0	0.75	89.0	-65.0	0.25	9.0	2.0	2.0	3.657551176977304	0.686	2.0	stim	poldrack-single-stim	s636	False	0
34.989	1.5	34.238	n/a	-1.0	2.522	columbia_card_task_fmri	n/a	n/a	-1.0	n/a	n/a	n/a	n/a	n/a	n/a	n/a	n/a	ITI	poldrack-single-stim	s636	False	0
36.762	0.548	37.31	4.083723234500745	draw_card	0.548	columbia_card_task_fmri	14.0	0.9	89.0	-95.0	0.1	10.0	1.0	1.0	0.8516786647976637	0.548	n/a	stim	poldrack-single-stim	s636	False	1
37.311	0.511	37.822	2.8726121233896333	draw_card	0.511	columbia_card_task_fmri	14.0	0.8888888888888888	89.0	-95.0	0.1111111111111111	10.0	2.0	1.0	2.4064024159137425	0.511	n/a	stim	poldrack-single-stim	s636	False	1
37.823	0.594	38.417	1.3587232345007458	draw_card	0.594	columbia_card_task_fmri	14.0	0.875	89.0	-95.0	0.125	10.0	3.0	1.0	4.198666720727619	0.594	3.0	stim	poldrack-single-stim	s636	False	0
39.17	1.5	38.419	n/a	-1.0	2.59	columbia_card_task_fmri	n/a	n/a	-1.0	n/a	n/a	n/a	n/a	n/a	n/a	n/a	n/a	ITI	poldrack-single-stim	s636	False	0
41.012	0.593	41.605	-0.0162767654992541	draw_card	0.593	columbia_card_task_fmri	15.0	0.8	89.0	-65.0	0.2	10.0	1.0	2.0	0.1520021206589596	0.593	n/a	stim	poldrack-single-stim	s636	False	1
41.607	0.481	42.088	-1.794054543277031	draw_card	0.481	columbia_card_task_fmri	15.0	0.7777777777777778	89.0	-65.0	0.2222222222222222	10.0	2.0	2.0	1.4106068276037045	0.481	n/a	stim	poldrack-single-stim	s636	False	1
42.09	0.598	42.688	-4.016276765499255	draw_card	0.598	columbia_card_task_fmri	15.0	0.75	89.0	-65.0	0.25	10.0	3.0	2.0	2.7918662481390197	0.598	n/a	stim	poldrack-single-stim	s636	False	1
42.69	0.814	43.504	-6.873419622642109	end_round	0.814	columbia_card_task_fmri	15.0	0.7142857142857143	71.0	-65.0	0.2857142857142857	10.0	4.0	2.0	4.290587091070609	0.814	3.0	stim	poldrack-single-stim	s636	False	1
44.255	1.5	43.504	n/a	-1.0	2.386	columbia_card_task_fmri	n/a	n/a	-1.0	n/a	n/a	n/a	n/a	n/a	n/a	n/a	n/a	ITI	poldrack-single-stim	s636	False	0
45.893	0.786	46.679	1.5837232345007473	draw_card	0.786	columbia_card_task_fmri	17.0	0.8	89.0	-65.0	0.2	10.0	1.0	2.0	0.9516335830745994	0.786	n/a	stim	poldrack-single-stim	s636	False	1
46.681	1.224	47.905	-0.2384989877214738	draw_card	1.224	columbia_card_task_fmri	17.0	0.7777777777777778	89.0	-65.0	0.2222222222222222	10.0	2.0	2.0	2.241731643758346	1.224	2.0	stim	poldrack-single-stim	s636	False	0
48.657	1.5	47.906	n/a	-1.0	2.59	columbia_card_task_fmri	n/a	n/a	-1.0	n/a	n/a	n/a	n/a	n/a	n/a	n/a	n/a	ITI	poldrack-single-stim	s636	False	0
50.499	1.254	51.753	0.1503899011674137	draw_card	1.254	columbia_card_task_fmri	13.0	0.8333333333333334	89.0	-70.0	0.1666666666666666	12.0	1.0	2.0	-0.915202641057192	1.254	1.0	stim	poldrack-single-stim	s636	False	0
52.506	1.5	51.755	n/a	-1.0	2.318	columbia_card_task_fmri	n/a	n/a	-1.0	n/a	n/a	n/a	n/a	n/a	n/a	n/a	n/a	ITI	poldrack-single-stim	s636	False	0
54.076	0.599	54.675	0.1503899011674137	draw_card	0.599	columbia_card_task_fmri	15.0	0.8333333333333334	89.0	-80.0	0.1666666666666666	12.0	1.0	2.0	3.5549587454383875	0.599	n/a	stim	poldrack-single-stim	s636	False	1
54.677	0.701	55.378	-1.289004038226529	draw_card	0.701	columbia_card_task_fmri	15.0	0.8181818181818181	89.0	-80.0	0.1818181818181818	12.0	2.0	2.0	4.791075887021481	0.701	n/a	stim	poldrack-single-stim	s636	False	1
55.379	0.362	55.741	-3.016276765499254	end_round	0.362	columbia_card_task_fmri	15.0	0.8	71.0	-80.0	0.2	12.0	3.0	2.0	6.149616112829886	0.362	2.0	stim	poldrack-single-stim	s636	False	1
56.494	1.5	55.743	n/a	-1.0	2.25	columbia_card_task_fmri	n/a	n/a	-1.0	n/a	n/a	n/a	n/a	n/a	n/a	n/a	n/a	ITI	poldrack-single-stim	s636	False	0
57.995	0.69	58.685	-0.8162767654992531	draw_card	0.69	columbia_card_task_fmri	14.0	0.8	89.0	-65.0	0.2	15.0	1.0	3.0	-0.247806617998247	0.69	n/a	stim	poldrack-single-stim	s636	False	1
58.687	0.556	59.243	-1.9448481940706808	draw_card	0.556	columbia_card_task_fmri	14.0	0.7857142857142857	89.0	-65.0	0.2142857142857142	15.0	2.0	3.0	0.5675546918390246	0.556	n/a	stim	poldrack-single-stim	s636	False	1
59.245	0.613	59.858	-3.247045996268486	draw_card	0.613	columbia_card_task_fmri	14.0	0.7692307692307692	89.0	-65.0	0.2307692307692307	15.0	3.0	3.0	1.4360974118576555	0.613	n/a	stim	poldrack-single-stim	s636	False	1
59.859	1.058	60.917	-4.766276765499255	draw_card	1.058	columbia_card_task_fmri	14.0	0.75	89.0	-65.0	0.25	15.0	4.0	3.0	2.359030244492981	1.058	n/a	stim	poldrack-single-stim	s636	False	1
60.92	0.59	61.51	-6.5617313109538	end_round	0.59	columbia_card_task_fmri	14.0	0.7272727272727273	71.0	-65.0	0.2727272727272727	15.0	5.0	3.0	3.3342147715489823	0.59	4.0	stim	poldrack-single-stim	s636	False	1
62.262	1.5	61.511	n/a	-1.0	2.454	columbia_card_task_fmri	n/a	n/a	-1.0	n/a	n/a	n/a	n/a	n/a	n/a	n/a	n/a	ITI	poldrack-single-stim	s636	False	0
63.968	1.112	65.08	-0.8912767654992542	draw_card	1.112	columbia_card_task_fmri	1.0	0.9375	89.0	-45.0	0.0625	16.0	1.0	1.0	-20.684917878468333	1.112	n/a	stim	poldrack-single-stim	s636	False	1
65.082	0.641	65.723	-1.0829434321659206	draw_card	0.641	columbia_card_task_fmri	1.0	0.9333333333333332	89.0	-45.0	0.0666666666666666	16.0	2.0	1.0	-20.346607793133757	0.641	n/a	stim	poldrack-single-stim	s636	False	1
65.725	0.821	66.546	-1.3019910512135398	draw_card	0.821	columbia_card_task_fmri	1.0	0.9285714285714286	89.0	-45.0	0.0714285714285714	16.0	3.0	1.0	-19.975530933083785	0.821	n/a	stim	poldrack-single-stim	s636	False	1
66.547	0.718	67.265	-1.5547383039607925	draw_card	0.718	columbia_card_task_fmri	1.0	0.9230769230769232	89.0	-45.0	0.0769230769230769	16.0	4.0	1.0	-19.566113859606247	0.718	n/a	stim	poldrack-single-stim	s636	False	1
67.268	0.862	68.13	-1.849610098832588	draw_card	0.862	columbia_card_task_fmri	1.0	0.9166666666666666	89.0	-45.0	0.0833333333333333	16.0	5.0	1.0	-19.111385493452516	0.862	5.0	stim	poldrack-single-stim	s636	False	0
68.882	1.5	68.131	n/a	-1.0	3.27	columbia_card_task_fmri	n/a	n/a	-1.0	n/a	n/a	n/a	n/a	n/a	n/a	n/a	n/a	ITI	poldrack-single-stim	s636	False	0
71.404	2.522	73.926	0.0462232345007458	draw_card	2.522	columbia_card_task_fmri	15.0	0.8125	89.0	-70.0	0.1875	16.0	1.0	3.0	1.3280181302719465	2.522	n/a	stim	poldrack-single-stim	s636	False	1
73.929	0.559	74.488	-1.0162767654992542	draw_card	0.559	columbia_card_task_fmri	15.0	0.8	89.0	-70.0	0.2	16.0	2.0	3.0	2.151113273646576	0.559	2.0	stim	poldrack-single-stim	s636	False	0
75.24	1.5	74.489	n/a	-1.0	2.25	columbia_card_task_fmri	n/a	n/a	-1.0	n/a	n/a	n/a	n/a	n/a	n/a	n/a	n/a	ITI	poldrack-single-stim	s636	False	0
76.742	0.63	77.372	6.983723234500745	draw_card	0.63	columbia_card_task_fmri	30.0	0.7	89.0	-50.0	0.3	10.0	1.0	3.0	4.81068663166894	0.63	n/a	stim	poldrack-single-stim	s636	False	1
77.374	0.963	78.337	4.317056567834085	draw_card	0.963	columbia_card_task_fmri	30.0	0.6666666666666667	89.0	-50.0	0.3333333333333333	10.0	2.0	3.0	5.862074843964198	0.963	n/a	stim	poldrack-single-stim	s636	False	1
78.34	0.814	79.154	0.9837232345007458	end_round	0.814	columbia_card_task_fmri	30.0	0.625	71.0	-50.0	0.375	10.0	3.0	3.0	6.879209748898145	0.814	2.0	stim	poldrack-single-stim	s636	False	1
79.906	1.5	79.155	n/a	-1.0	2.25	columbia_card_task_fmri	n/a	n/a	-1.0	n/a	n/a	n/a	n/a	n/a	n/a	n/a	n/a	ITI	poldrack-single-stim	s636	False	0
81.408	0.758	82.166	6.383723234500746	draw_card	0.758	columbia_card_task_fmri	17.0	0.8666666666666667	89.0	-70.0	0.1333333333333333	15.0	1.0	2.0	-2.2724454692746328	0.758	n/a	stim	poldrack-single-stim	s636	False	1
82.169	0.622	82.791	5.555151805929318	draw_card	0.622	columbia_card_task_fmri	17.0	0.8571428571428572	89.0	-70.0	0.1428571428571428	15.0	2.0	2.0	-1.403567233234245	0.622	n/a	stim	poldrack-single-stim	s636	False	1
82.792	0.586	83.378	4.59910784988536	end_round	0.586	columbia_card_task_fmri	17.0	0.8461538461538461	71.0	-70.0	0.1538461538461538	15.0	3.0	2.0	-0.4579986417984685	0.586	2.0	stim	poldrack-single-stim	s636	False	1
84.131	1.5	83.38	n/a	-1.0	2.318	columbia_card_task_fmri	n/a	n/a	-1.0	n/a	n/a	n/a	n/a	n/a	n/a	n/a	n/a	ITI	poldrack-single-stim	s636	False	0
85.7	0.833	86.533	1.6087232345007458	draw_card	0.833	columbia_card_task_fmri	7.0	0.9375	89.0	-95.0	0.0625	16.0	1.0	1.0	-7.153256717970788	0.833	n/a	stim	poldrack-single-stim	s636	False	1
86.535	0.719	87.254	1.183723234500746	draw_card	0.719	columbia_card_task_fmri	7.0	0.9333333333333332	89.0	-95.0	0.0666666666666666	16.0	2.0	1.0	-6.400834630404102	0.719	n/a	stim	poldrack-single-stim	s636	False	1
87.256	0.6	87.856	0.6980089487864602	draw_card	0.6	columbia_card_task_fmri	7.0	0.9285714285714286	89.0	-95.0	0.0714285714285714	16.0	3.0	1.0	-5.575685562323322	0.6	n/a	stim	poldrack-single-stim	s636	False	1
87.858	0.993	88.851	0.1375693883468991	draw_card	0.993	columbia_card_task_fmri	7.0	0.9230769230769232	89.0	-95.0	0.0769230769230769	16.0	4.0	1.0	-4.665444429774972	0.993	n/a	stim	poldrack-single-stim	s636	False	1
88.854	1.27	90.124	-0.5162767654992542	draw_card	1.27	columbia_card_task_fmri	7.0	0.9166666666666666	89.0	-95.0	0.0833333333333333	16.0	5.0	1.0	-3.654646010671062	1.27	n/a	stim	poldrack-single-stim	s636	False	1
90.126	1.483	91.609	-1.2890040382265275	end_round	1.483	columbia_card_task_fmri	7.0	0.9090909090909092	71.0	-95.0	0.0909090909090909	16.0	6.0	1.0	-2.5236802079052154	1.483	5.0	stim	poldrack-single-stim	s636	False	1
92.362	1.5	91.611	n/a	-1.0	2.726	columbia_card_task_fmri	n/a	n/a	-1.0	n/a	n/a	n/a	n/a	n/a	n/a	n/a	n/a	ITI	poldrack-single-stim	s636	False	0
94.342	0.54	94.882	3.171223234500746	draw_card	0.54	columbia_card_task_fmri	9.0	0.9375	89.0	-100.0	0.0625	16.0	1.0	1.0	-5.460083625791761	0.54	n/a	stim	poldrack-single-stim	s636	False	1
94.884	0.484	95.368	2.7170565678340792	draw_card	0.484	columbia_card_task_fmri	9.0	0.9333333333333332	89.0	-100.0	0.0666666666666666	16.0	2.0	1.0	-4.655947846061679	0.484	n/a	stim	poldrack-single-stim	s636	False	1
95.37	0.753	96.123	2.198008948786461	draw_card	0.753	columbia_card_task_fmri	9.0	0.9285714285714286	89.0	-100.0	0.0714285714285714	16.0	3.0	1.0	-3.774091647841928	0.753	n/a	stim	poldrack-single-stim	s636	False	1
96.126	0.78	96.906	1.5991078498853617	draw_card	0.78	columbia_card_task_fmri	9.0	0.9230769230769232	89.0	-100.0	0.0769230769230769	16.0	4.0	1.0	-2.801301139892768	0.78	n/a	stim	poldrack-single-stim	s636	False	1
96.908	1.178	98.086	0.9003899011674137	draw_card	1.178	columbia_card_task_fmri	9.0	0.9166666666666666	89.0	-100.0	0.0833333333333333	16.0	5.0	1.0	-1.7210495036416198	1.178	5.0	stim	poldrack-single-stim	s636	False	0
98.838	1.5	98.087	n/a	-1.0	2.386	columbia_card_task_fmri	n/a	n/a	-1.0	n/a	n/a	n/a	n/a	n/a	n/a	n/a	n/a	ITI	poldrack-single-stim	s636	False	0
100.477	0.675	101.152	4.108723234500745	draw_card	0.675	columbia_card_task_fmri	15.0	0.875	89.0	-80.0	0.125	16.0	1.0	2.0	-0.4294213096907171	0.675	n/a	stim	poldrack-single-stim	s636	False	1
101.154	0.502	101.656	3.31705656783408	draw_card	0.502	columbia_card_task_fmri	15.0	0.8666666666666667	89.0	-80.0	0.1333333333333333	16.0	2.0	2.0	0.4456549124593714	0.502	n/a	stim	poldrack-single-stim	s636	False	1
101.658	0.465	102.123	2.4122946630721764	draw_card	0.465	columbia_card_task_fmri	15.0	0.8571428571428572	89.0	-80.0	0.1428571428571428	16.0	3.0	2.0	1.394512178805865	0.465	n/a	stim	poldrack-single-stim	s636	False	1
102.126	0.661	102.787	1.368338619116129	end_round	0.661	columbia_card_task_fmri	15.0	0.8461538461538461	71.0	-80.0	0.1538461538461538	16.0	4.0	2.0	2.427113873082956	0.661	3.0	stim	poldrack-single-stim	s636	False	1
103.54	1.5	102.789	n/a	-1.0	2.318	columbia_card_task_fmri	n/a	n/a	-1.0	n/a	n/a	n/a	n/a	n/a	n/a	n/a	n/a	ITI	poldrack-single-stim	s636	False	0
105.11	0.434	105.544	6.233723234500745	end_round	0.434	columbia_card_task_fmri	16.0	0.875	71.0	-70.0	0.125	16.0	1.0	2.0	-3.4042811724799087	0.434	0.0	stim	poldrack-single-stim	s636	False	1
106.297	1.5	105.546	n/a	-1.0	2.25	columbia_card_task_fmri	n/a	n/a	-1.0	n/a	n/a	n/a	n/a	n/a	n/a	n/a	n/a	ITI	poldrack-single-stim	s636	False	0
107.799	0.55	108.349	7.546223234500745	draw_card	0.55	columbia_card_task_fmri	30.0	0.6875	89.0	-45.0	0.3125	16.0	1.0	5.0	2.914231349426533	0.55	n/a	stim	poldrack-single-stim	s636	False	1
108.352	0.655	109.007	5.983723234500749	draw_card	0.655	columbia_card_task_fmri	30.0	0.6666666666666667	89.0	-45.0	0.3333333333333333	16.0	2.0	5.0	3.505907118167276	0.655	2.0	stim	poldrack-single-stim	s636	False	0
109.76	1.5	109.009	n/a	-1.0	2.25	columbia_card_task_fmri	n/a	n/a	-1.0	n/a	n/a	n/a	n/a	n/a	n/a	n/a	n/a	ITI	poldrack-single-stim	s636	False	0
111.262	0.826	112.088	-0.6829434321659202	draw_card	0.826	columbia_card_task_fmri	13.0	0.8333333333333334	89.0	-75.0	0.1666666666666666	6.0	1.0	1.0	0.9472992022653024	0.826	1.0	stim	poldrack-single-stim	s636	False	0
112.841	1.5	112.09	n/a	-1.0	2.454	columbia_card_task_fmri	n/a	n/a	-1.0	n/a	n/a	n/a	n/a	n/a	n/a	n/a	n/a	ITI	poldrack-single-stim	s636	False	0
114.547	0.423	114.97	0.9837232345007476	end_round	0.423	columbia_card_task_fmri	14.0	0.8333333333333334	71.0	-70.0	0.1666666666666666	6.0	1.0	1.0	-0.542710724660143	0.423	0.0	stim	poldrack-single-stim	s636	False	1
115.723	1.5	114.972	n/a	-1.0	2.454	columbia_card_task_fmri	n/a	n/a	-1.0	n/a	n/a	n/a	n/a	n/a	n/a	n/a	n/a	ITI	poldrack-single-stim	s636	False	0
117.43	0.329	117.759	0.9837232345007476	end_round	0.329	columbia_card_task_fmri	16.0	0.8333333333333334	71.0	-80.0	0.1666666666666666	6.0	1.0	1.0	3.927494463441459	0.329	0.0	stim	poldrack-single-stim	s636	False	1
118.512	1.5	117.761	n/a	-1.0	2.522	columbia_card_task_fmri	n/a	n/a	-1.0	n/a	n/a	n/a	n/a	n/a	n/a	n/a	n/a	ITI	poldrack-single-stim	s636	False	0
120.285	0.342	120.627	3.483723234500748	draw_card	0.342	columbia_card_task_fmri	17.0	0.8333333333333334	89.0	-70.0	0.1666666666666666	6.0	1.0	1.0	0.5747906725179455	0.342	1.0	stim	poldrack-single-stim	s636	False	0
121.38	1.5	120.629	n/a	-1.0	2.386	columbia_card_task_fmri	n/a	n/a	-1.0	n/a	n/a	n/a	n/a	n/a	n/a	n/a	n/a	ITI	poldrack-single-stim	s636	False	0
123.018	0.12	123.138	3.483723234500746	end_round	0.12	columbia_card_task_fmri	25.0	0.75	71.0	-65.0	0.25	8.0	1.0	2.0	7.120442136899275	0.12	0.0	stim	poldrack-single-stim	s636	False	1
123.893	1.5	123.142	n/a	-1.0	2.454	columbia_card_task_fmri	n/a	n/a	-1.0	n/a	n/a	n/a	n/a	n/a	n/a	n/a	n/a	ITI	poldrack-single-stim	s636	False	0
125.599	0.325	125.924	3.483723234500746	draw_card	0.325	columbia_card_task_fmri	30.0	0.75	89.0	-80.0	0.25	8.0	1.0	2.0	15.778439661033849	0.325	n/a	stim	poldrack-single-stim	s636	False	1
125.927	1.0	126.927	-0.4448481940706776	draw_card	1.0	columbia_card_task_fmri	30.0	0.7142857142857143	89.0	-80.0	0.2857142857142857	8.0	2.0	2.0	17.839555818069993	1.0	2.0	stim	poldrack-single-stim	s636	False	0
127.68	1.5	126.929	n/a	-1.0	2.522	columbia_card_task_fmri	n/a	n/a	-1.0	n/a	n/a	n/a	n/a	n/a	n/a	n/a	n/a	ITI	poldrack-single-stim	s636	False	0
129.454	0.551	130.005	3.183723234500747	end_round	0.551	columbia_card_task_fmri	13.0	0.9	71.0	-95.0	0.1	10.0	1.0	1.0	0.551815578515086	0.551	0.0	stim	poldrack-single-stim	s636	False	1
130.758	1.5	130.007	n/a	-1.0	2.522	columbia_card_task_fmri	n/a	n/a	-1.0	n/a	n/a	n/a	n/a	n/a	n/a	n/a	n/a	ITI	poldrack-single-stim	s636	False	0
132.533	0.39	132.923	4.583723234500745	end_round	0.39	columbia_card_task_fmri	14.0	0.9	71.0	-90.0	0.1	10.0	1.0	1.0	-0.6476104561257792	0.39	0.0	stim	poldrack-single-stim	s636	False	1
133.676	1.5	132.925	n/a	-1.0	2.59	columbia_card_task_fmri	n/a	n/a	-1.0	n/a	n/a	n/a	n/a	n/a	n/a	n/a	n/a	ITI	poldrack-single-stim	s636	False	0
135.519	0.353	135.872	-0.2162767654992534	draw_card	0.353	columbia_card_task_fmri	16.0	0.8	89.0	-70.0	0.2	10.0	1.0	2.0	2.550947898939849	0.353	n/a	stim	poldrack-single-stim	s636	False	1
135.875	0.605	136.48	-2.127387876610365	draw_card	0.605	columbia_card_task_fmri	16.0	0.7777777777777778	89.0	-70.0	0.2222222222222222	10.0	2.0	2.0	3.904030726343482	0.605	n/a	stim	poldrack-single-stim	s636	False	1
136.483	0.921	137.404	-4.516276765499255	draw_card	0.921	columbia_card_task_fmri	16.0	0.75	89.0	-70.0	0.25	10.0	3.0	2.0	5.388968516913035	0.921	n/a	stim	poldrack-single-stim	s636	False	1
137.407	1.049	138.456	-7.587705336927826	end_round	1.049	columbia_card_task_fmri	16.0	0.7142857142857143	71.0	-70.0	0.2857142857142857	10.0	4.0	2.0	7.00017721900365	1.049	3.0	stim	poldrack-single-stim	s636	False	1
139.209	1.5	138.458	n/a	-1.0	2.454	columbia_card_task_fmri	n/a	n/a	-1.0	n/a	n/a	n/a	n/a	n/a	n/a	n/a	n/a	ITI	poldrack-single-stim	s636	False	0
140.915	0.394	141.309	-0.9329434321659202	draw_card	0.394	columbia_card_task_fmri	7.0	0.9166666666666666	89.0	-100.0	0.0833333333333333	12.0	1.0	1.0	-2.2735203396289947	0.394	n/a	stim	poldrack-single-stim	s636	False	1
141.313	0.341	141.654	-1.7435494927719826	draw_card	0.341	columbia_card_task_fmri	7.0	0.9090909090909092	89.0	-100.0	0.0909090909090909	12.0	2.0	1.0	-1.087051722515568	0.341	2.0	stim	poldrack-single-stim	s636	False	0
142.407	1.5	141.656	n/a	-1.0	2.318	columbia_card_task_fmri	n/a	n/a	-1.0	n/a	n/a	n/a	n/a	n/a	n/a	n/a	n/a	ITI	poldrack-single-stim	s636	False	0
143.978	0.378	144.356	-0.6829434321659185	end_round	0.378	columbia_card_task_fmri	14.0	0.8333333333333334	71.0	-80.0	0.1666666666666666	12.0	1.0	2.0	3.1824260528617394	0.378	0.0	stim	poldrack-single-stim	s636	False	1
145.109	1.5	144.358	n/a	-1.0	2.25	columbia_card_task_fmri	n/a	n/a	-1.0	n/a	n/a	n/a	n/a	n/a	n/a	n/a	n/a	ITI	poldrack-single-stim	s636	False	0
146.611	0.394	147.005	0.9837232345007458	end_round	0.394	columbia_card_task_fmri	15.0	0.8333333333333334	71.0	-75.0	0.1666666666666666	12.0	1.0	2.0	1.6923275521051728	0.394	0.0	stim	poldrack-single-stim	s636	False	1
147.759	1.5	147.008	n/a	-1.0	2.658	columbia_card_task_fmri	n/a	n/a	-1.0	n/a	n/a	n/a	n/a	n/a	n/a	n/a	n/a	ITI	poldrack-single-stim	s636	False	0
149.671	0.39	150.061	-0.0162767654992541	draw_card	0.39	columbia_card_task_fmri	15.0	0.8	89.0	-65.0	0.2	15.0	1.0	3.0	0.1520021206589596	0.39	n/a	stim	poldrack-single-stim	s636	False	1
150.062	0.461	150.523	-1.1591339083563963	draw_card	0.461	columbia_card_task_fmri	15.0	0.7857142857142857	89.0	-65.0	0.2142857142857142	15.0	2.0	3.0	0.9776941402909464	0.461	n/a	stim	poldrack-single-stim	s636	False	1
150.527	0.821	151.348	-2.4778152270377176	draw_card	0.821	columbia_card_task_fmri	15.0	0.7692307692307692	89.0	-65.0	0.2307692307692307	15.0	3.0	3.0	1.8572408624463852	0.821	3.0	stim	poldrack-single-stim	s636	False	0
152.101	1.5	151.35	n/a	-1.0	2.454	columbia_card_task_fmri	n/a	n/a	-1.0	n/a	n/a	n/a	n/a	n/a	n/a	n/a	n/a	ITI	poldrack-single-stim	s636	False	0
153.808	0.344	154.152	-0.7662767654992542	draw_card	0.344	columbia_card_task_fmri	14.0	0.8125	89.0	-70.0	0.1875	16.0	1.0	3.0	0.9378792618341444	0.344	1.0	stim	poldrack-single-stim	s636	False	0
154.905	1.5	154.154	n/a	-1.0	2.386	columbia_card_task_fmri	n/a	n/a	-1.0	n/a	n/a	n/a	n/a	n/a	n/a	n/a	n/a	ITI	poldrack-single-stim	s636	False	0
156.544	0.305	156.849	-0.8287767654992542	draw_card	0.305	columbia_card_task_fmri	11.0	0.6875	89.0	-30.0	0.3125	16.0	1.0	5.0	-12.833662491100393	0.305	n/a	stim	poldrack-single-stim	s636	False	1
156.851	0.417	157.268	-1.6829434321659202	end_round	0.417	columbia_card_task_fmri	11.0	0.6666666666666667	71.0	-30.0	0.3333333333333333	16.0	2.0	5.0	-12.51051117716264	0.417	1.0	stim	poldrack-single-stim	s636	False	1
158.021	1.5	157.27	n/a	-1.0	2.59	columbia_card_task_fmri	n/a	n/a	-1.0	n/a	n/a	n/a	n/a	n/a	n/a	n/a	n/a	ITI	poldrack-single-stim	s636	False	0
159.864	0.48	160.344	3.983723234500746	draw_card	0.48	columbia_card_task_fmri	15.0	0.8666666666666667	89.0	-75.0	0.1333333333333333	15.0	1.0	2.0	-1.2531864851272625	0.48	n/a	stim	poldrack-single-stim	s636	False	1
160.347	0.411	160.758	3.12658037735789	end_round	0.411	columbia_card_task_fmri	15.0	0.8571428571428572	71.0	-75.0	0.1428571428571428	15.0	2.0	2.0	-0.3543152967392196	0.411	1.0	stim	poldrack-single-stim	s636	False	1
161.511	1.5	160.76	n/a	-1.0	2.318	columbia_card_task_fmri	n/a	n/a	-1.0	n/a	n/a	n/a	n/a	n/a	n/a	n/a	n/a	ITI	poldrack-single-stim	s636	False	0
163.083	0.559	163.642	5.71705656783408	end_round	0.559	columbia_card_task_fmri	17.0	0.8666666666666667	71.0	-75.0	0.1333333333333333	15.0	1.0	2.0	-0.573660767295177	0.559	0.0	stim	poldrack-single-stim	s636	False	1
164.395	1.5	163.644	n/a	-1.0	2.59	columbia_card_task_fmri	n/a	n/a	-1.0	n/a	n/a	n/a	n/a	n/a	n/a	n/a	n/a	ITI	poldrack-single-stim	s636	False	0
166.237	1.028	167.265	1.2962232345007458	draw_card	1.028	columbia_card_task_fmri	2.0	0.9375	89.0	-25.0	0.0625	16.0	1.0	1.0	-25.253836839387624	1.028	n/a	stim	poldrack-single-stim	s636	False	1
167.268	0.353	167.621	1.1837232345007458	draw_card	0.353	columbia_card_task_fmri	2.0	0.9333333333333332	89.0	-25.0	0.0666666666666666	16.0	2.0	1.0	-25.056668487063178	0.353	n/a	stim	poldrack-single-stim	s636	False	1
167.625	0.752	168.377	1.0551518059293177	end_round	0.752	columbia_card_task_fmri	2.0	0.9285714285714286	71.0	-25.0	0.0714285714285714	16.0	3.0	1.0	-24.8403124941183	0.752	2.0	stim	poldrack-single-stim	s636	False	1
169.13	1.5	168.379	n/a	-1.0	2.386	columbia_card_task_fmri	n/a	n/a	-1.0	n/a	n/a	n/a	n/a	n/a	n/a	n/a	n/a	ITI	poldrack-single-stim	s636	False	0
170.769	0.339	171.108	3.483723234500746	draw_card	0.339	columbia_card_task_fmri	9.0	0.9375	89.0	-95.0	0.0625	16.0	1.0	1.0	-6.669510225929038	0.339	n/a	stim	poldrack-single-stim	s636	False	1
171.11	0.356	171.466	3.050389901167413	draw_card	0.356	columbia_card_task_fmri	9.0	0.9333333333333332	89.0	-95.0	0.0666666666666666	16.0	2.0	1.0	-5.902312289461232	0.356	n/a	stim	poldrack-single-stim	s636	False	1
171.47	0.536	172.006	2.555151805929318	draw_card	0.536	columbia_card_task_fmri	9.0	0.9285714285714286	89.0	-95.0	0.0714285714285714	16.0	3.0	1.0	-5.060960660103547	0.536	n/a	stim	poldrack-single-stim	s636	False	1
172.008	0.772	172.78	1.9837232345007456	end_round	0.772	columbia_card_task_fmri	9.0	0.9230769230769232	71.0	-95.0	0.0769230769230769	16.0	4.0	1.0	-4.132847736051136	0.772	3.0	stim	poldrack-single-stim	s636	False	1
173.534	1.5	172.783	n/a	-1.0	2.318	columbia_card_task_fmri	n/a	n/a	-1.0	n/a	n/a	n/a	n/a	n/a	n/a	n/a	n/a	ITI	poldrack-single-stim	s636	False	0
175.104	0.369	175.473	5.046223234500745	draw_card	0.369	columbia_card_task_fmri	11.0	0.9375	89.0	-100.0	0.0625	16.0	1.0	1.0	-4.976290792935924	0.369	n/a	stim	poldrack-single-stim	s636	False	1
175.476	0.357	175.833	4.583723234500747	draw_card	0.357	columbia_card_task_fmri	11.0	0.9333333333333332	89.0	-100.0	0.0666666666666666	16.0	2.0	1.0	-4.157380530035319	0.357	n/a	stim	poldrack-single-stim	s636	False	1
175.836	0.474	176.31	4.055151805929318	draw_card	0.474	columbia_card_task_fmri	11.0	0.9285714285714286	89.0	-100.0	0.0714285714285714	16.0	3.0	1.0	-3.2593231787389314	0.474	n/a	stim	poldrack-single-stim	s636	False	1
176.313	0.416	176.729	3.4452616960392084	draw_card	0.416	columbia_card_task_fmri	11.0	0.9230769230769232	89.0	-100.0	0.0769230769230769	16.0	4.0	1.0	-2.2686623339417764	0.416	n/a	stim	poldrack-single-stim	s636	False	1
176.732	1.11	177.842	2.733723234500746	end_round	1.11	columbia_card_task_fmri	11.0	0.9166666666666666	71.0	-100.0	0.0833333333333333	16.0	5.0	1.0	-1.1685678666804442	1.11	4.0	stim	poldrack-single-stim	s636	False	1
178.595	1.5	177.844	n/a	-1.0	2.318	columbia_card_task_fmri	n/a	n/a	-1.0	n/a	n/a	n/a	n/a	n/a	n/a	n/a	n/a	ITI	poldrack-single-stim	s636	False	0
180.167	0.929	181.096	5.608723234500745	end_round	0.929	columbia_card_task_fmri	16.0	0.875	71.0	-75.0	0.125	16.0	1.0	2.0	-1.7516205421421915	0.929	0.0	stim	poldrack-single-stim	s636	False	1
181.849	1.5	181.098	n/a	-1.0	2.318	columbia_card_task_fmri	n/a	n/a	-1.0	n/a	n/a	n/a	n/a	n/a	n/a	n/a	n/a	ITI	poldrack-single-stim	s636	False	0
183.42	1.052	184.472	5.858723234500745	draw_card	1.052	columbia_card_task_fmri	17.0	0.875	89.0	-80.0	0.125	16.0	1.0	2.0	0.23169921166809	1.052	n/a	stim	poldrack-single-stim	s636	False	1
184.475	0.251	184.726	5.050389901167414	draw_card	0.251	columbia_card_task_fmri	17.0	0.8666666666666667	89.0	-80.0	0.1333333333333333	16.0	2.0	2.0	1.125215464912518	0.251	n/a	stim	poldrack-single-stim	s636	False	1
184.729	0.35	185.079	4.126580377357891	draw_card	0.35	columbia_card_task_fmri	17.0	0.8571428571428572	89.0	-80.0	0.1428571428571428	16.0	3.0	2.0	2.094066479157501	0.35	n/a	stim	poldrack-single-stim	s636	False	1
185.083	0.47	185.553	3.0606463114238225	end_round	0.47	columbia_card_task_fmri	17.0	0.8461538461538461	71.0	-80.0	0.1538461538461538	16.0	4.0	2.0	3.1484254136742003	0.47	3.0	stim	poldrack-single-stim	s636	False	1
186.306	1.5	185.555	n/a	-1.0	2.386	columbia_card_task_fmri	n/a	n/a	-1.0	n/a	n/a	n/a	n/a	n/a	n/a	n/a	n/a	ITI	poldrack-single-stim	s636	False	0
198.946	1.063	200.009	0.1503899011674137	end_round	1.063	columbia_card_task_fmri	13.0	0.8333333333333334	71.0	-70.0	0.1666666666666666	6.0	1.0	1.0	-0.915202641057192	1.063	0.0	stim	poldrack-single-stim	s636	False	1
200.762	1.5	200.011	n/a	-1.0	2.25	columbia_card_task_fmri	n/a	n/a	-1.0	n/a	n/a	n/a	n/a	n/a	n/a	n/a	n/a	ITI	poldrack-single-stim	s636	False	0
202.265	0.65	202.915	0.1503899011674137	draw_card	0.65	columbia_card_task_fmri	15.0	0.8333333333333334	89.0	-80.0	0.1666666666666666	6.0	1.0	1.0	3.5549587454383875	0.65	n/a	stim	poldrack-single-stim	s636	False	1
202.919	0.605	203.524	-3.016276765499254	draw_card	0.605	columbia_card_task_fmri	15.0	0.8	89.0	-80.0	0.2	6.0	2.0	1.0	6.149616112829886	0.605	n/a	stim	poldrack-single-stim	s636	False	1
203.527	0.77	204.297	-7.766276765499255	draw_card	0.77	columbia_card_task_fmri	15.0	0.75	89.0	-80.0	0.25	6.0	3.0	1.0	9.284852482178888	0.77	n/a	stim	poldrack-single-stim	s636	False	1
204.3	0.655	204.955	-15.68294343216592	end_round	0.655	columbia_card_task_fmri	15.0	0.6666666666666667	71.0	-80.0	0.3333333333333333	6.0	4.0	1.0	12.931117719550226	0.655	3.0	stim	poldrack-single-stim	s636	False	1
205.709	1.5	204.958	n/a	-1.0	2.386	columbia_card_task_fmri	n/a	n/a	-1.0	n/a	n/a	n/a	n/a	n/a	n/a	n/a	n/a	ITI	poldrack-single-stim	s636	False	0
207.347	0.453	207.8	1.81705656783408	draw_card	0.453	columbia_card_task_fmri	16.0	0.8333333333333334	89.0	-75.0	0.1666666666666666	6.0	1.0	1.0	2.064847124271612	0.453	n/a	stim	poldrack-single-stim	s636	False	1
207.803	0.48	208.283	-1.2162767654992537	draw_card	0.48	columbia_card_task_fmri	16.0	0.8	89.0	-75.0	0.2	6.0	2.0	1.0	4.550175513416424	0.48	n/a	stim	poldrack-single-stim	s636	False	1
208.286	0.542	208.828	-5.766276765499255	draw_card	0.542	columbia_card_task_fmri	16.0	0.75	89.0	-75.0	0.25	6.0	3.0	1.0	7.553318466507338	0.542	n/a	stim	poldrack-single-stim	s636	False	1
208.831	1.544	210.375	-13.349610098832589	draw_card	1.544	columbia_card_task_fmri	16.0	0.6666666666666667	89.0	-75.0	0.3333333333333333	6.0	4.0	1.0	11.04597437327146	1.544	n/a	stim	poldrack-single-stim	s636	False	1
210.379	1.503	211.882	-28.516276765499253	draw_card	1.503	columbia_card_task_fmri	16.0	0.5	89.0	-75.0	0.5	6.0	5.0	1.0	13.647518149464693	1.503	n/a	stim	poldrack-single-stim	s636	False	1
211.885	0.805	212.69	-74.01627676549926	end_round	0.805	columbia_card_task_fmri	16.0	0.0	71.0	-75.0	1.0	6.0	6.0	1.0	-30.879391564853204	0.805	5.0	stim	poldrack-single-stim	s636	False	1
213.443	1.5	212.692	n/a	-1.0	2.59	columbia_card_task_fmri	n/a	n/a	-1.0	n/a	n/a	n/a	n/a	n/a	n/a	n/a	n/a	ITI	poldrack-single-stim	s636	False	0
215.286	0.707	215.993	2.983723234500746	draw_card	0.707	columbia_card_task_fmri	21.0	0.75	89.0	-55.0	0.25	8.0	1.0	2.0	1.0605501151432897	0.707	n/a	stim	poldrack-single-stim	s636	False	1
215.996	0.426	216.422	0.2694375202150323	draw_card	0.426	columbia_card_task_fmri	21.0	0.7142857142857143	89.0	-55.0	0.2857142857142857	8.0	2.0	2.0	2.4842755179056475	0.426	2.0	stim	poldrack-single-stim	s636	False	0
217.176	1.5	216.425	n/a	-1.0	2.658	columbia_card_task_fmri	n/a	n/a	-1.0	n/a	n/a	n/a	n/a	n/a	n/a	n/a	n/a	ITI	poldrack-single-stim	s636	False	0
219.088	0.421	219.509	4.233723234500745	draw_card	0.421	columbia_card_task_fmri	26.0	0.75	89.0	-65.0	0.25	8.0	1.0	2.0	7.553318466507338	0.421	n/a	stim	poldrack-single-stim	s636	False	1
219.512	0.399	219.911	0.9837232345007494	draw_card	0.399	columbia_card_task_fmri	26.0	0.7142857142857143	89.0	-65.0	0.2857142857142857	8.0	2.0	2.0	9.25826299130497	0.399	n/a	stim	poldrack-single-stim	s636	False	1
219.914	0.39	220.304	-3.3496100988325828	end_round	0.39	columbia_card_task_fmri	26.0	0.6666666666666667	71.0	-65.0	0.3333333333333333	8.0	3.0	2.0	11.04597437327146	0.39	2.0	stim	poldrack-single-stim	s636	False	1
221.058	1.5	220.307	n/a	-1.0	2.386	columbia_card_task_fmri	n/a	n/a	-1.0	n/a	n/a	n/a	n/a	n/a	n/a	n/a	n/a	ITI	poldrack-single-stim	s636	False	0
222.698	0.469	223.167	-0.6829434321659202	end_round	0.469	columbia_card_task_fmri	15.0	0.7777777777777778	71.0	-60.0	0.2222222222222222	9.0	1.0	2.0	-0.6671225307256137	0.469	0.0	stim	poldrack-single-stim	s636	False	1
223.92	1.5	223.169	n/a	-1.0	2.386	columbia_card_task_fmri	n/a	n/a	-1.0	n/a	n/a	n/a	n/a	n/a	n/a	n/a	n/a	ITI	poldrack-single-stim	s636	False	0
225.559	0.352	225.911	3.683723234500747	draw_card	0.352	columbia_card_task_fmri	13.0	0.9	89.0	-90.0	0.1	10.0	1.0	1.0	-0.947460004378364	0.352	n/a	stim	poldrack-single-stim	s636	False	1
225.915	0.647	226.562	2.539278790056301	draw_card	0.647	columbia_card_task_fmri	13.0	0.8888888888888888	89.0	-90.0	0.1111111111111111	10.0	2.0	1.0	0.5216066065482359	0.647	n/a	stim	poldrack-single-stim	s636	False	1
226.565	0.673	227.238	1.1087232345007458	draw_card	0.673	columbia_card_task_fmri	13.0	0.875	89.0	-90.0	0.125	10.0	3.0	1.0	2.215134662760395	0.673	n/a	stim	poldrack-single-stim	s636	False	1
227.241	0.644	227.885	-0.7305624797849659	end_round	0.644	columbia_card_task_fmri	13.0	0.8571428571428572	71.0	-90.0	0.1428571428571428	10.0	4.0	1.0	4.192799221675845	0.644	3.0	stim	poldrack-single-stim	s636	False	1
228.639	1.5	227.888	n/a	-1.0	2.25	columbia_card_task_fmri	n/a	n/a	-1.0	n/a	n/a	n/a	n/a	n/a	n/a	n/a	n/a	ITI	poldrack-single-stim	s636	False	0
230.142	0.356	230.498	4.983723234500745	draw_card	0.356	columbia_card_task_fmri	15.0	0.9	89.0	-95.0	0.1	10.0	1.0	1.0	1.151544238747544	0.356	n/a	stim	poldrack-single-stim	s636	False	1
230.501	0.402	230.903	3.761501012278522	draw_card	0.402	columbia_card_task_fmri	15.0	0.8888888888888888	89.0	-95.0	0.1111111111111111	10.0	2.0	1.0	2.72054376646523	0.402	2.0	stim	poldrack-single-stim	s636	False	0
231.657	1.5	230.906	n/a	-1.0	2.318	columbia_card_task_fmri	n/a	n/a	-1.0	n/a	n/a	n/a	n/a	n/a	n/a	n/a	n/a	ITI	poldrack-single-stim	s636	False	0
233.227	0.403	233.63	0.7837232345007465	draw_card	0.403	columbia_card_task_fmri	16.0	0.8	89.0	-65.0	0.2	10.0	1.0	2.0	0.5518155785150789	0.403	n/a	stim	poldrack-single-stim	s636	False	1
233.633	0.342	233.975	-1.0162767654992524	draw_card	0.342	columbia_card_task_fmri	16.0	0.7777777777777778	89.0	-65.0	0.2222222222222222	10.0	2.0	2.0	1.826167048172824	0.342	n/a	stim	poldrack-single-stim	s636	False	1
233.978	0.664	234.642	-3.266276765499254	draw_card	0.664	columbia_card_task_fmri	16.0	0.75	89.0	-65.0	0.25	10.0	3.0	2.0	3.224706612100146	0.664	n/a	stim	poldrack-single-stim	s636	False	1
234.645	0.479	235.124	-6.159133908356395	end_round	0.479	columbia_card_task_fmri	16.0	0.7142857142857143	71.0	-65.0	0.2857142857142857	10.0	4.0	2.0	4.742175846109195	0.479	3.0	stim	poldrack-single-stim	s636	False	1
235.878	1.5	235.127	n/a	-1.0	2.25	columbia_card_task_fmri	n/a	n/a	-1.0	n/a	n/a	n/a	n/a	n/a	n/a	n/a	n/a	ITI	poldrack-single-stim	s636	False	0
237.381	0.611	237.992	-0.5162767654992542	draw_card	0.611	columbia_card_task_fmri	7.0	0.9166666666666666	89.0	-95.0	0.0833333333333333	12.0	1.0	1.0	-3.654646010671062	0.611	n/a	stim	poldrack-single-stim	s636	False	1
237.996	0.357	238.353	-1.2890040382265275	draw_card	0.357	columbia_card_task_fmri	7.0	0.9090909090909092	89.0	-95.0	0.0909090909090909	12.0	2.0	1.0	-2.5236802079052154	0.357	n/a	stim	poldrack-single-stim	s636	False	1
238.356	0.492	238.848	-2.2162767654992543	draw_card	0.492	columbia_card_task_fmri	7.0	0.9	89.0	-95.0	0.1	12.0	3.0	1.0	-1.2473066048591228	0.492	n/a	stim	poldrack-single-stim	s636	False	1
238.851	0.552	239.403	-3.349610098832588	end_round	0.552	columbia_card_task_fmri	7.0	0.8888888888888888	71.0	-95.0	0.1111111111111111	12.0	4.0	1.0	0.2074833702725804	0.552	3.0	stim	poldrack-single-stim	s636	False	1
240.157	1.5	239.406	n/a	-1.0	2.25	columbia_card_task_fmri	n/a	n/a	-1.0	n/a	n/a	n/a	n/a	n/a	n/a	n/a	n/a	ITI	poldrack-single-stim	s636	False	0
241.661	0.463	242.124	0.1503899011674137	end_round	0.463	columbia_card_task_fmri	14.0	0.8333333333333334	71.0	-75.0	0.1666666666666666	12.0	1.0	2.0	1.319811537709601	0.463	0.0	stim	poldrack-single-stim	s636	False	1
242.878	1.5	242.127	n/a	-1.0	2.386	columbia_card_task_fmri	n/a	n/a	-1.0	n/a	n/a	n/a	n/a	n/a	n/a	n/a	n/a	ITI	poldrack-single-stim	s636	False	0
244.519	0.434	244.953	1.81705656783408	end_round	0.434	columbia_card_task_fmri	15.0	0.8333333333333334	71.0	-70.0	0.1666666666666666	12.0	1.0	2.0	-0.170214433115472	0.434	0.0	stim	poldrack-single-stim	s636	False	1
245.707	1.5	244.956	n/a	-1.0	2.386	columbia_card_task_fmri	n/a	n/a	-1.0	n/a	n/a	n/a	n/a	n/a	n/a	n/a	n/a	ITI	poldrack-single-stim	s636	False	0
247.346	0.407	247.753	-0.2162767654992534	draw_card	0.407	columbia_card_task_fmri	16.0	0.8	89.0	-70.0	0.2	15.0	1.0	3.0	2.550947898939849	0.407	n/a	stim	poldrack-single-stim	s636	False	1
247.757	0.284	248.041	-1.444848194070683	draw_card	0.284	columbia_card_task_fmri	16.0	0.7857142857142857	89.0	-70.0	0.2142857142857142	15.0	2.0	3.0	3.438621834433352	0.284	n/a	stim	poldrack-single-stim	s636	False	1
248.045	0.387	248.432	-2.862430611653101	draw_card	0.387	columbia_card_task_fmri	16.0	0.7692307692307692	89.0	-70.0	0.2307692307692307	15.0	3.0	3.0	4.384190199585223	0.387	3.0	stim	poldrack-single-stim	s636	False	0
249.186	1.5	248.435	n/a	-1.0	2.726	columbia_card_task_fmri	n/a	n/a	-1.0	n/a	n/a	n/a	n/a	n/a	n/a	n/a	n/a	ITI	poldrack-single-stim	s636	False	0
251.167	0.522	251.689	0.1712232345007458	draw_card	0.522	columbia_card_task_fmri	14.0	0.8125	89.0	-65.0	0.1875	16.0	1.0	3.0	-1.0127492398975022	0.522	n/a	stim	poldrack-single-stim	s636	False	1
251.694	0.425	252.119	-0.8162767654992531	draw_card	0.425	columbia_card_task_fmri	14.0	0.8	89.0	-65.0	0.2	16.0	2.0	3.0	-0.247806617998247	0.425	n/a	stim	poldrack-single-stim	s636	False	1
252.123	0.553	252.676	-1.9448481940706808	draw_card	0.553	columbia_card_task_fmri	14.0	0.7857142857142857	89.0	-65.0	0.2142857142857142	16.0	3.0	3.0	0.5675546918390246	0.553	n/a	stim	poldrack-single-stim	s636	False	1
252.68	0.507	253.187	-3.247045996268486	end_round	0.507	columbia_card_task_fmri	14.0	0.7692307692307692	71.0	-65.0	0.2307692307692307	16.0	4.0	3.0	1.4360974118576555	0.507	3.0	stim	poldrack-single-stim	s636	False	1
253.941	1.5	253.19	n/a	-1.0	2.454	columbia_card_task_fmri	n/a	n/a	-1.0	n/a	n/a	n/a	n/a	n/a	n/a	n/a	n/a	ITI	poldrack-single-stim	s636	False	0
255.648	0.661	256.309	-0.0787767654992541	draw_card	0.661	columbia_card_task_fmri	16.0	0.8125	89.0	-75.0	0.1875	16.0	1.0	3.0	3.668931372406224	0.661	1.0	stim	poldrack-single-stim	s636	False	0
257.063	1.5	256.312	n/a	-1.0	2.318	columbia_card_task_fmri	n/a	n/a	-1.0	n/a	n/a	n/a	n/a	n/a	n/a	n/a	n/a	ITI	poldrack-single-stim	s636	False	0
258.635	0.396	259.031	4.1837232345007465	end_round	0.396	columbia_card_task_fmri	16.0	0.8666666666666667	71.0	-80.0	0.1333333333333333	15.0	1.0	2.0	0.7854335818849485	0.396	0.0	stim	poldrack-single-stim	s636	False	1
259.785	1.5	259.034	n/a	-1.0	2.318	columbia_card_task_fmri	n/a	n/a	-1.0	n/a	n/a	n/a	n/a	n/a	n/a	n/a	n/a	ITI	poldrack-single-stim	s636	False	0
261.357	0.347	261.704	5.050389901167414	draw_card	0.347	columbia_card_task_fmri	17.0	0.8666666666666667	89.0	-80.0	0.1333333333333333	15.0	1.0	2.0	1.125215464912518	0.347	n/a	stim	poldrack-single-stim	s636	False	1
261.706	0.346	262.052	4.126580377357891	draw_card	0.346	columbia_card_task_fmri	17.0	0.8571428571428572	89.0	-80.0	0.1428571428571428	15.0	2.0	2.0	2.094066479157501	0.346	n/a	stim	poldrack-single-stim	s636	False	1
262.055	0.699	262.754	3.0606463114238225	draw_card	0.699	columbia_card_task_fmri	17.0	0.8461538461538461	89.0	-80.0	0.1538461538461538	15.0	3.0	2.0	3.1484254136742003	0.699	3.0	stim	poldrack-single-stim	s636	False	0
263.508	1.5	262.757	n/a	-1.0	2.59	columbia_card_task_fmri	n/a	n/a	-1.0	n/a	n/a	n/a	n/a	n/a	n/a	n/a	n/a	ITI	poldrack-single-stim	s636	False	0
265.351	0.407	265.758	0.9837232345007458	draw_card	0.407	columbia_card_task_fmri	1.0	0.9375	89.0	-15.0	0.0625	16.0	1.0	1.0	-27.86715291238648	0.407	n/a	stim	poldrack-single-stim	s636	False	1
265.762	0.381	266.143	0.9170565678340792	draw_card	0.381	columbia_card_task_fmri	1.0	0.9333333333333332	89.0	-15.0	0.0666666666666666	16.0	2.0	1.0	-27.752567355158043	0.381	n/a	stim	poldrack-single-stim	s636	False	1
266.147	0.441	266.588	0.840866091643603	end_round	0.441	columbia_card_task_fmri	1.0	0.9285714285714286	71.0	-15.0	0.0714285714285714	16.0	3.0	1.0	-27.626689037130408	0.441	2.0	stim	poldrack-single-stim	s636	False	1
267.342	1.5	266.591	n/a	-1.0	2.726	columbia_card_task_fmri	n/a	n/a	-1.0	n/a	n/a	n/a	n/a	n/a	n/a	n/a	n/a	ITI	poldrack-single-stim	s636	False	0
269.322	1.197	270.519	4.108723234500745	end_round	1.197	columbia_card_task_fmri	10.0	0.9375	71.0	-100.0	0.0625	16.0	1.0	1.0	-5.218188708218012	1.197	0.0	stim	poldrack-single-stim	s636	False	1
271.273	1.5	270.522	n/a	-1.0	2.522	columbia_card_task_fmri	n/a	n/a	-1.0	n/a	n/a	n/a	n/a	n/a	n/a	n/a	n/a	ITI	poldrack-single-stim	s636	False	0
273.049	0.567	273.616	4.733723234500745	end_round	0.567	columbia_card_task_fmri	15.0	0.875	71.0	-75.0	0.125	16.0	1.0	2.0	-2.082160963015923	0.567	0.0	stim	poldrack-single-stim	s636	False	1
274.37	1.5	273.619	n/a	-1.0	3.134	columbia_card_task_fmri	n/a	n/a	-1.0	n/a	n/a	n/a	n/a	n/a	n/a	n/a	n/a	ITI	poldrack-single-stim	s636	False	0
276.758	0.596	277.354	4.983723234500745	draw_card	0.596	columbia_card_task_fmri	16.0	0.875	89.0	-80.0	0.125	16.0	1.0	2.0	-0.0988627004598754	0.596	n/a	stim	poldrack-single-stim	s636	False	1
277.358	0.391	277.749	4.1837232345007465	draw_card	0.391	columbia_card_task_fmri	16.0	0.8666666666666667	89.0	-80.0	0.1333333333333333	16.0	2.0	2.0	0.7854335818849485	0.391	n/a	stim	poldrack-single-stim	s636	False	1
277.753	0.706	278.459	3.269437520215034	end_round	0.706	columbia_card_task_fmri	16.0	0.8571428571428572	71.0	-80.0	0.1428571428571428	16.0	3.0	2.0	1.7442877679445807	0.706	2.0	stim	poldrack-single-stim	s636	False	1
279.214	1.5	278.463	n/a	-1.0	2.386	columbia_card_task_fmri	n/a	n/a	-1.0	n/a	n/a	n/a	n/a	n/a	n/a	n/a	n/a	ITI	poldrack-single-stim	s636	False	0
280.855	0.746	281.601	2.171223234500746	end_round	0.746	columbia_card_task_fmri	4.0	0.6875	71.0	-5.0	0.3125	16.0	1.0	5.0	-27.577084567064794	0.746	0.0	stim	poldrack-single-stim	s636	False	1
282.355	1.5	281.604	n/a	-1.0	2.386	columbia_card_task_fmri	n/a	n/a	-1.0	n/a	n/a	n/a	n/a	n/a	n/a	n/a	n/a	ITI	poldrack-single-stim	s636	False	0
283.995	1.104	285.099	-0.6829434321659185	end_round	1.104	columbia_card_task_fmri	14.0	0.8333333333333334	71.0	-80.0	0.1666666666666666	6.0	1.0	1.0	3.1824260528617394	1.104	0.0	stim	poldrack-single-stim	s636	False	1
285.853	1.5	285.102	n/a	-1.0	2.318	columbia_card_task_fmri	n/a	n/a	-1.0	n/a	n/a	n/a	n/a	n/a	n/a	n/a	n/a	ITI	poldrack-single-stim	s636	False	0
287.424	0.625	288.049	0.9837232345007458	draw_card	0.625	columbia_card_task_fmri	15.0	0.8333333333333334	89.0	-75.0	0.1666666666666666	6.0	1.0	1.0	1.6923275521051728	0.625	n/a	stim	poldrack-single-stim	s636	False	1
288.053	1.069	289.122	-2.016276765499254	draw_card	1.069	columbia_card_task_fmri	15.0	0.8	89.0	-75.0	0.2	6.0	2.0	1.0	4.150323128759727	1.069	n/a	stim	poldrack-single-stim	s636	False	1
289.125	0.967	290.092	-6.516276765499255	draw_card	0.967	columbia_card_task_fmri	15.0	0.75	89.0	-75.0	0.25	6.0	3.0	1.0	7.120442136899275	0.967	3.0	stim	poldrack-single-stim	s636	False	0
290.848	1.5	290.097	n/a	-1.0	2.318	columbia_card_task_fmri	n/a	n/a	-1.0	n/a	n/a	n/a	n/a	n/a	n/a	n/a	n/a	ITI	poldrack-single-stim	s636	False	0
292.419	0.821	293.24	2.6503899011674137	end_round	0.821	columbia_card_task_fmri	16.0	0.8333333333333334	71.0	-70.0	0.1666666666666666	6.0	1.0	1.0	0.2022860811015867	0.821	0.0	stim	poldrack-single-stim	s636	False	1
293.994	1.5	293.243	n/a	-1.0	2.862	columbia_card_task_fmri	n/a	n/a	-1.0	n/a	n/a	n/a	n/a	n/a	n/a	n/a	n/a	ITI	poldrack-single-stim	s636	False	0
296.109	0.46	296.569	3.233723234500746	draw_card	0.46	columbia_card_task_fmri	23.0	0.75	89.0	-60.0	0.25	8.0	1.0	2.0	4.090399791045922	0.46	1.0	stim	poldrack-single-stim	s636	False	0
297.324	1.5	296.573	n/a	-1.0	2.726	columbia_card_task_fmri	n/a	n/a	-1.0	n/a	n/a	n/a	n/a	n/a	n/a	n/a	n/a	ITI	poldrack-single-stim	s636	False	0
299.304	0.636	299.94	3.733723234500746	draw_card	0.636	columbia_card_task_fmri	27.0	0.75	89.0	-70.0	0.25	8.0	1.0	2.0	10.15063546650659	0.636	n/a	stim	poldrack-single-stim	s636	False	1
299.944	0.933	300.877	0.2694375202150305	end_round	0.933	columbia_card_task_fmri	27.0	0.7142857142857143	71.0	-70.0	0.2857142857142857	8.0	2.0	2.0	11.968058958996966	0.933	1.0	stim	poldrack-single-stim	s636	False	1
301.631	1.5	300.88	n/a	-1.0	2.25	columbia_card_task_fmri	n/a	n/a	-1.0	n/a	n/a	n/a	n/a	n/a	n/a	n/a	n/a	ITI	poldrack-single-stim	s636	False	0
303.135	0.698	303.833	-1.0162767654992524	draw_card	0.698	columbia_card_task_fmri	16.0	0.7777777777777778	89.0	-65.0	0.2222222222222222	9.0	1.0	2.0	1.826167048172824	0.698	n/a	stim	poldrack-single-stim	s636	False	1
303.837	0.64	304.477	-3.266276765499254	draw_card	0.64	columbia_card_task_fmri	16.0	0.75	89.0	-65.0	0.25	9.0	2.0	2.0	3.224706612100146	0.64	n/a	stim	poldrack-single-stim	s636	False	1
304.481	0.477	304.958	-6.159133908356395	end_round	0.477	columbia_card_task_fmri	16.0	0.7142857142857143	71.0	-65.0	0.2857142857142857	9.0	3.0	2.0	4.742175846109195	0.477	2.0	stim	poldrack-single-stim	s636	False	1
305.712	1.5	304.961	n/a	-1.0	2.318	columbia_card_task_fmri	n/a	n/a	-1.0	n/a	n/a	n/a	n/a	n/a	n/a	n/a	n/a	ITI	poldrack-single-stim	s636	False	0
307.285	0.407	307.692	4.1837232345007465	draw_card	0.407	columbia_card_task_fmri	13.0	0.9	89.0	-85.0	0.1	10.0	1.0	1.0	-2.446661726250511	0.407	n/a	stim	poldrack-single-stim	s636	False	1
307.696	0.451	308.147	3.094834345611857	draw_card	0.451	columbia_card_task_fmri	13.0	0.8888888888888888	89.0	-85.0	0.1111111111111111	10.0	2.0	1.0	-1.0489797104269876	0.451	n/a	stim	poldrack-single-stim	s636	False	1
308.152	0.724	308.876	1.7337232345007458	draw_card	0.724	columbia_card_task_fmri	13.0	0.875	89.0	-85.0	0.125	10.0	3.0	1.0	0.5622643256786013	0.724	n/a	stim	poldrack-single-stim	s636	False	1
308.88	0.61	309.49	-0.0162767654992523	end_round	0.61	columbia_card_task_fmri	13.0	0.8571428571428572	71.0	-85.0	0.1428571428571428	10.0	4.0	1.0	2.443848216950723	0.61	3.0	stim	poldrack-single-stim	s636	False	1
310.244	1.5	309.493	n/a	-1.0	2.454	columbia_card_task_fmri	n/a	n/a	-1.0	n/a	n/a	n/a	n/a	n/a	n/a	n/a	n/a	ITI	poldrack-single-stim	s636	False	0
311.952	0.604	312.556	-0.8162767654992531	end_round	0.604	columbia_card_task_fmri	14.0	0.8	71.0	-65.0	0.2	10.0	1.0	2.0	-0.247806617998247	0.604	0.0	stim	poldrack-single-stim	s636	False	1
313.31	1.5	312.559	n/a	-1.0	2.522	columbia_card_task_fmri	n/a	n/a	-1.0	n/a	n/a	n/a	n/a	n/a	n/a	n/a	n/a	ITI	poldrack-single-stim	s636	False	0
315.086	0.851	315.937	0.5837232345007473	end_round	0.851	columbia_card_task_fmri	17.0	0.8	71.0	-70.0	0.2	10.0	1.0	2.0	2.950786323647147	0.851	0.0	stim	poldrack-single-stim	s636	False	1
316.693	1.5	315.942	n/a	-1.0	2.318	columbia_card_task_fmri	n/a	n/a	-1.0	n/a	n/a	n/a	n/a	n/a	n/a	n/a	n/a	ITI	poldrack-single-stim	s636	False	0
318.264	0.61	318.874	-0.6829434321659202	end_round	0.61	columbia_card_task_fmri	13.0	0.8333333333333334	71.0	-75.0	0.1666666666666666	12.0	1.0	2.0	0.9472992022653024	0.61	0.0	stim	poldrack-single-stim	s636	False	1
319.629	1.5	318.878	n/a	-1.0	2.522	columbia_card_task_fmri	n/a	n/a	-1.0	n/a	n/a	n/a	n/a	n/a	n/a	n/a	n/a	ITI	poldrack-single-stim	s636	False	0
321.404	0.365	321.769	0.9837232345007476	end_round	0.365	columbia_card_task_fmri	14.0	0.8333333333333334	71.0	-70.0	0.1666666666666666	12.0	1.0	2.0	-0.542710724660143	0.365	0.0	stim	poldrack-single-stim	s636	False	1
322.524	1.5	321.773	n/a	-1.0	2.998	columbia_card_task_fmri	n/a	n/a	-1.0	n/a	n/a	n/a	n/a	n/a	n/a	n/a	n/a	ITI	poldrack-single-stim	s636	False	0
324.775	0.381	325.156	0.9837232345007476	draw_card	0.381	columbia_card_task_fmri	16.0	0.8333333333333334	89.0	-80.0	0.1666666666666666	12.0	1.0	2.0	3.927494463441459	0.381	n/a	stim	poldrack-single-stim	s636	False	1
325.161	0.373	325.534	-0.4708222200447109	draw_card	0.373	columbia_card_task_fmri	16.0	0.8181818181818181	89.0	-80.0	0.1818181818181818	12.0	2.0	2.0	5.176633013146972	0.373	n/a	stim	poldrack-single-stim	s636	False	1
325.538	0.346	325.884	-2.216276765499253	draw_card	0.346	columbia_card_task_fmri	16.0	0.8	89.0	-80.0	0.2	12.0	3.0	2.0	6.54948354288393	0.346	n/a	stim	poldrack-single-stim	s636	False	1
325.888	0.362	326.25	-4.3496100988325885	draw_card	0.362	columbia_card_task_fmri	16.0	0.7777777777777778	89.0	-80.0	0.2222222222222222	12.0	4.0	2.0	8.060018848832858	0.362	4.0	stim	poldrack-single-stim	s636	False	0
327.004	1.5	326.253	n/a	-1.0	2.318	columbia_card_task_fmri	n/a	n/a	-1.0	n/a	n/a	n/a	n/a	n/a	n/a	n/a	n/a	ITI	poldrack-single-stim	s636	False	0
328.575	0.407	328.982	0.7837232345007465	draw_card	0.407	columbia_card_task_fmri	16.0	0.8	89.0	-65.0	0.2	15.0	1.0	3.0	0.5518155785150789	0.407	n/a	stim	poldrack-single-stim	s636	False	1
328.987	0.278	329.265	-0.37341962264211	draw_card	0.278	columbia_card_task_fmri	16.0	0.7857142857142857	89.0	-65.0	0.2142857142857142	15.0	2.0	3.0	1.387838189506429	0.278	n/a	stim	poldrack-single-stim	s636	False	1
329.269	0.622	329.891	-1.7085844578069476	draw_card	0.622	columbia_card_task_fmri	16.0	0.7692307692307692	89.0	-65.0	0.2307692307692307	15.0	3.0	3.0	2.278388794001668	0.622	n/a	stim	poldrack-single-stim	s636	False	1
329.895	0.357	330.252	-3.266276765499254	end_round	0.357	columbia_card_task_fmri	16.0	0.75	71.0	-65.0	0.25	15.0	4.0	3.0	3.224706612100146	0.357	3.0	stim	poldrack-single-stim	s636	False	1
331.006	1.5	330.255	n/a	-1.0	2.25	columbia_card_task_fmri	n/a	n/a	-1.0	n/a	n/a	n/a	n/a	n/a	n/a	n/a	n/a	ITI	poldrack-single-stim	s636	False	0
332.51	0.435	332.945	-0.8912767654992542	draw_card	0.435	columbia_card_task_fmri	15.0	0.8125	89.0	-75.0	0.1875	16.0	1.0	3.0	3.2787702724815766	0.435	n/a	stim	poldrack-single-stim	s636	False	1
332.949	0.354	333.303	-2.016276765499254	draw_card	0.354	columbia_card_task_fmri	15.0	0.8	89.0	-75.0	0.2	16.0	2.0	3.0	4.150323128759727	0.354	2.0	stim	poldrack-single-stim	s636	False	0
334.057	1.5	333.306	n/a	-1.0	2.454	columbia_card_task_fmri	n/a	n/a	-1.0	n/a	n/a	n/a	n/a	n/a	n/a	n/a	n/a	ITI	poldrack-single-stim	s636	False	0
335.766	0.315	336.081	-0.3287767654992541	draw_card	0.315	columbia_card_task_fmri	14.0	0.6875	89.0	-35.0	0.3125	16.0	1.0	5.0	-9.12971304879984	0.315	n/a	stim	poldrack-single-stim	s636	False	1
336.085	0.836	336.921	-1.3496100988325863	end_round	0.836	columbia_card_task_fmri	14.0	0.6666666666666667	71.0	-35.0	0.3333333333333333	16.0	2.0	5.0	-8.743355567094365	0.836	1.0	stim	poldrack-single-stim	s636	False	1
337.675	1.5	336.924	n/a	-1.0	2.318	columbia_card_task_fmri	n/a	n/a	-1.0	n/a	n/a	n/a	n/a	n/a	n/a	n/a	n/a	ITI	poldrack-single-stim	s636	False	0
339.248	0.733	339.981	4.8503899011674125	end_round	0.733	columbia_card_task_fmri	16.0	0.8666666666666667	71.0	-75.0	0.1333333333333333	15.0	1.0	2.0	-0.9134255124216466	0.733	0.0	stim	poldrack-single-stim	s636	False	1
340.736	1.5	339.985	n/a	-1.0	2.318	columbia_card_task_fmri	n/a	n/a	-1.0	n/a	n/a	n/a	n/a	n/a	n/a	n/a	n/a	ITI	poldrack-single-stim	s636	False	0
342.307	0.356	342.663	5.517056567834079	draw_card	0.356	columbia_card_task_fmri	16.0	0.8666666666666667	89.0	-70.0	0.1333333333333333	15.0	1.0	2.0	-2.61219002267406	0.356	n/a	stim	poldrack-single-stim	s636	False	1
342.668	0.61	343.278	4.698008948786461	draw_card	0.61	columbia_card_task_fmri	16.0	0.8571428571428572	89.0	-70.0	0.1428571428571428	15.0	2.0	2.0	-1.753309677710913	0.61	n/a	stim	poldrack-single-stim	s636	False	1
343.282	0.326	343.608	3.752954003731514	end_round	0.326	columbia_card_task_fmri	16.0	0.8461538461538461	71.0	-70.0	0.1538461538461538	15.0	3.0	2.0	-0.8186207495166897	0.326	2.0	stim	poldrack-single-stim	s636	False	1
344.363	1.5	343.612	n/a	-1.0	2.59	columbia_card_task_fmri	n/a	n/a	-1.0	n/a	n/a	n/a	n/a	n/a	n/a	n/a	n/a	ITI	poldrack-single-stim	s636	False	0
346.209	0.353	346.562	2.858723234500746	draw_card	0.353	columbia_card_task_fmri	8.0	0.9375	89.0	-90.0	0.0625	16.0	1.0	1.0	-8.120703666486744	0.353	1.0	stim	poldrack-single-stim	s636	False	0
347.317	1.5	346.566	n/a	-1.0	2.25	columbia_card_task_fmri	n/a	n/a	-1.0	n/a	n/a	n/a	n/a	n/a	n/a	n/a	n/a	ITI	poldrack-single-stim	s636	False	0
348.821	0.726	349.547	4.421223234500745	draw_card	0.726	columbia_card_task_fmri	10.0	0.9375	89.0	-95.0	0.0625	16.0	1.0	1.0	-6.427631608502303	0.726	n/a	stim	poldrack-single-stim	s636	False	1
349.551	1.146	350.697	3.9837232345007463	draw_card	1.146	columbia_card_task_fmri	10.0	0.9333333333333332	89.0	-95.0	0.0666666666666666	16.0	2.0	1.0	-5.653045905852416	1.146	n/a	stim	poldrack-single-stim	s636	False	1
350.701	0.436	351.137	3.4837232345007467	end_round	0.436	columbia_card_task_fmri	10.0	0.9285714285714286	71.0	-95.0	0.0714285714285714	16.0	3.0	1.0	-4.803593159049651	0.436	2.0	stim	poldrack-single-stim	s636	False	1
351.892	1.5	351.141	n/a	-1.0	2.25	columbia_card_task_fmri	n/a	n/a	-1.0	n/a	n/a	n/a	n/a	n/a	n/a	n/a	n/a	ITI	poldrack-single-stim	s636	False	0
353.397	0.607	354.004	5.358723234500745	draw_card	0.607	columbia_card_task_fmri	15.0	0.875	89.0	-70.0	0.125	16.0	1.0	2.0	-3.734800125308926	0.607	n/a	stim	poldrack-single-stim	s636	False	1
354.007	0.361	354.368	4.650389901167412	draw_card	0.361	columbia_card_task_fmri	15.0	0.8666666666666667	89.0	-70.0	0.1333333333333333	16.0	2.0	2.0	-2.9519301074222533	0.361	n/a	stim	poldrack-single-stim	s636	False	1
354.373	0.443	354.816	3.840866091643604	end_round	0.443	columbia_card_task_fmri	15.0	0.8571428571428572	71.0	-70.0	0.1428571428571428	16.0	3.0	2.0	-2.1030477807278487	0.443	2.0	stim	poldrack-single-stim	s636	False	1
355.572	1.5	354.821	n/a	-1.0	2.522	columbia_card_task_fmri	n/a	n/a	-1.0	n/a	n/a	n/a	n/a	n/a	n/a	n/a	n/a	ITI	poldrack-single-stim	s636	False	0
357.348	0.548	357.896	4.358723234500745	draw_card	0.548	columbia_card_task_fmri	16.0	0.875	89.0	-85.0	0.125	16.0	1.0	2.0	1.553977928800851	0.548	n/a	stim	poldrack-single-stim	s636	False	1
357.9	0.446	358.346	3.517056567834079	draw_card	0.446	columbia_card_task_fmri	16.0	0.8666666666666667	89.0	-85.0	0.1333333333333333	16.0	2.0	2.0	2.484373225599473	0.446	2.0	stim	poldrack-single-stim	s636	False	0
359.101	1.5	358.35	n/a	-1.0	2.454	columbia_card_task_fmri	n/a	n/a	-1.0	n/a	n/a	n/a	n/a	n/a	n/a	n/a	n/a	ITI	poldrack-single-stim	s636	False	0
