onset	duration	movement_onset	EV	action	block_duration	experiment_exp_id	gain_amount	gain_probability	key_press	loss_amount	loss_probability	num_cards	num_click_in_round	num_loss_cards	risk	response_time	total_cards	trial_id	trial_type	worker_id	junk	feedback
3.011	1.615	4.626	0.2405863492768256	draw_card	1.615	columbia_card_task_fmri	12.0	0.8333333333333334	89.0	-70.0	0.1666666666666666	6.0	1.0	1.0	-2.089932803265526	1.615	n/a	stim	poldrack-single-stim	s637	False	1
4.629	2.45	7.079	-2.492746984056507	draw_card	2.45	columbia_card_task_fmri	12.0	0.8	89.0	-70.0	0.2	6.0	2.0	1.0	0.146417263681208	2.45	2.0	stim	poldrack-single-stim	s637	False	0
7.832	1.5	7.081	n/a	-1.0	2.454	columbia_card_task_fmri	n/a	n/a	-1.0	n/a	n/a	n/a	n/a	n/a	n/a	n/a	n/a	ITI	poldrack-single-stim	s637	False	0
9.538	2.488	12.026	1.0739196826101596	draw_card	2.488	columbia_card_task_fmri	14.0	0.8333333333333334	89.0	-75.0	0.1666666666666666	6.0	1.0	1.0	0.5141446696958454	2.488	n/a	stim	poldrack-single-stim	s637	False	1
12.028	0.199	12.227	-1.8927469840565072	draw_card	0.199	columbia_card_task_fmri	14.0	0.8	89.0	-75.0	0.2	6.0	2.0	1.0	2.942066101206862	0.199	2.0	stim	poldrack-single-stim	s637	False	0
12.98	1.5	12.229	n/a	-1.0	2.454	columbia_card_task_fmri	n/a	n/a	-1.0	n/a	n/a	n/a	n/a	n/a	n/a	n/a	n/a	ITI	poldrack-single-stim	s637	False	0
14.686	2.174	16.86	2.7405863492768257	draw_card	2.174	columbia_card_task_fmri	15.0	0.8333333333333334	89.0	-70.0	0.1666666666666666	6.0	1.0	1.0	-0.973993500777361	2.174	n/a	stim	poldrack-single-stim	s637	False	1
16.863	2.871	19.734	-0.0927469840565082	draw_card	2.871	columbia_card_task_fmri	15.0	0.8	89.0	-70.0	0.2	6.0	2.0	1.0	1.3444649311612338	2.871	n/a	stim	poldrack-single-stim	s637	False	1
19.736	0.173	19.909	-4.342746984056508	draw_card	0.173	columbia_card_task_fmri	15.0	0.75	89.0	-70.0	0.25	6.0	3.0	1.0	4.146475096116355	0.173	n/a	stim	poldrack-single-stim	s637	False	1
19.911	2.963	22.874	-11.42608031738984	draw_card	2.963	columbia_card_task_fmri	15.0	0.6666666666666667	89.0	-70.0	0.3333333333333333	6.0	4.0	1.0	7.405762649223789	2.963	n/a	stim	poldrack-single-stim	s637	False	1
22.875	0.209	23.084	-25.592746984056507	draw_card	0.209	columbia_card_task_fmri	15.0	0.5	89.0	-70.0	0.5	6.0	5.0	1.0	9.833786558341025	0.209	5.0	stim	poldrack-single-stim	s637	False	0
23.837	1.5	23.086	n/a	-1.0	2.522	columbia_card_task_fmri	n/a	n/a	-1.0	n/a	n/a	n/a	n/a	n/a	n/a	n/a	n/a	ITI	poldrack-single-stim	s637	False	0
25.611	3.305	28.916	3.57391968261016	draw_card	3.305	columbia_card_task_fmri	17.0	0.8333333333333334	89.0	-75.0	0.1666666666666666	6.0	1.0	1.0	1.630394819831686	3.305	1.0	stim	poldrack-single-stim	s637	False	0
29.669	1.5	28.918	n/a	-1.0	2.454	columbia_card_task_fmri	n/a	n/a	-1.0	n/a	n/a	n/a	n/a	n/a	n/a	n/a	n/a	ITI	poldrack-single-stim	s637	False	0
31.374	1.706	33.08	4.907253015943492	draw_card	1.706	columbia_card_task_fmri	24.0	0.75	89.0	-60.0	0.25	8.0	1.0	2.0	3.7140494830260096	1.706	n/a	stim	poldrack-single-stim	s637	False	1
33.083	1.651	34.734	1.907253015943492	draw_card	1.651	columbia_card_task_fmri	24.0	0.7142857142857143	89.0	-60.0	0.2857142857142857	8.0	2.0	2.0	5.286244088389694	1.651	n/a	stim	poldrack-single-stim	s637	False	1
34.736	2.326	37.062	-2.0927469840565083	draw_card	2.326	columbia_card_task_fmri	24.0	0.6666666666666667	89.0	-60.0	0.3333333333333333	8.0	3.0	2.0	6.934897575289284	2.326	3.0	stim	poldrack-single-stim	s637	False	0
37.815	1.5	37.064	n/a	-1.0	2.658	columbia_card_task_fmri	n/a	n/a	-1.0	n/a	n/a	n/a	n/a	n/a	n/a	n/a	n/a	ITI	poldrack-single-stim	s637	False	0
39.726	1.455	41.181	4.907253015943492	draw_card	1.455	columbia_card_task_fmri	29.0	0.75	89.0	-75.0	0.25	8.0	1.0	2.0	12.364703553700473	1.455	n/a	stim	poldrack-single-stim	s637	False	1
41.183	2.07	43.253	1.19296730165778	draw_card	2.07	columbia_card_task_fmri	29.0	0.7142857142857143	89.0	-75.0	0.2857142857142857	8.0	2.0	2.0	14.312120148173818	2.07	n/a	stim	poldrack-single-stim	s637	False	1
43.255	2.008	45.263	-3.759413650723173	draw_card	2.008	columbia_card_task_fmri	29.0	0.6666666666666667	89.0	-75.0	0.3333333333333333	8.0	3.0	2.0	16.354167532527022	2.008	n/a	stim	poldrack-single-stim	s637	False	1
45.265	2.306	47.571	-10.692746984056509	end_round	2.306	columbia_card_task_fmri	29.0	0.6	71.0	-75.0	0.4	8.0	4.0	2.0	18.27608508664175	2.306	3.0	stim	poldrack-single-stim	s637	False	1
48.324	1.5	47.573	n/a	-1.0	2.386	columbia_card_task_fmri	n/a	n/a	-1.0	n/a	n/a	n/a	n/a	n/a	n/a	n/a	n/a	ITI	poldrack-single-stim	s637	False	0
49.962	2.075	52.037	0.6850307937212721	draw_card	2.075	columbia_card_task_fmri	17.0	0.7777777777777778	89.0	-65.0	0.2222222222222222	9.0	1.0	2.0	1.434979199988149	2.075	n/a	stim	poldrack-single-stim	s637	False	1
52.039	1.442	53.481	-1.5927469840565085	draw_card	1.442	columbia_card_task_fmri	17.0	0.75	89.0	-65.0	0.25	9.0	2.0	2.0	2.849241123670041	1.442	n/a	stim	poldrack-single-stim	s637	False	1
53.484	1.91	55.394	-4.521318412627935	draw_card	1.91	columbia_card_task_fmri	17.0	0.7142857142857143	89.0	-65.0	0.2857142857142857	9.0	3.0	2.0	4.383902939969531	1.91	n/a	stim	poldrack-single-stim	s637	False	1
55.396	1.712	57.108	-8.42608031738984	draw_card	1.712	columbia_card_task_fmri	17.0	0.6666666666666667	89.0	-65.0	0.3333333333333333	9.0	4.0	2.0	5.993206828645981	1.712	n/a	stim	poldrack-single-stim	s637	False	1
57.109	2.49	59.599	-13.892746984056508	end_round	2.49	columbia_card_task_fmri	17.0	0.6	71.0	-65.0	0.4	9.0	5.0	2.0	7.507894825763778	2.49	4.0	stim	poldrack-single-stim	s637	False	1
60.352	1.5	59.601	n/a	-1.0	2.522	columbia_card_task_fmri	n/a	n/a	-1.0	n/a	n/a	n/a	n/a	n/a	n/a	n/a	n/a	ITI	poldrack-single-stim	s637	False	0
62.126	3.68	65.806	5.007253015943491	draw_card	3.68	columbia_card_task_fmri	14.0	0.9	89.0	-95.0	0.1	10.0	1.0	1.0	0.0465864098043837	3.68	n/a	stim	poldrack-single-stim	s637	False	1
65.808	1.107	66.915	3.7961419048323792	draw_card	1.107	columbia_card_task_fmri	14.0	0.8888888888888888	89.0	-95.0	0.1111111111111111	10.0	2.0	1.0	1.5994622071756694	1.107	n/a	stim	poldrack-single-stim	s637	False	1
66.917	0.886	67.803	2.282253015943492	draw_card	0.886	columbia_card_task_fmri	14.0	0.875	89.0	-95.0	0.125	10.0	3.0	1.0	3.3897936149733567	0.886	3.0	stim	poldrack-single-stim	s637	False	0
68.557	1.5	67.806	n/a	-1.0	2.59	columbia_card_task_fmri	n/a	n/a	-1.0	n/a	n/a	n/a	n/a	n/a	n/a	n/a	n/a	ITI	poldrack-single-stim	s637	False	0
70.399	2.249	72.648	0.9072530159434916	draw_card	2.249	columbia_card_task_fmri	15.0	0.8	89.0	-65.0	0.2	10.0	1.0	2.0	-0.6522000441742151	2.249	n/a	stim	poldrack-single-stim	s637	False	1
72.65	0.136	72.786	-0.8705247618342851	draw_card	0.136	columbia_card_task_fmri	15.0	0.7777777777777778	89.0	-65.0	0.2222222222222222	10.0	2.0	2.0	0.6048303809450033	0.136	n/a	stim	poldrack-single-stim	s637	False	1
72.788	1.053	73.841	-3.0927469840565083	draw_card	1.053	columbia_card_task_fmri	15.0	0.75	89.0	-65.0	0.25	10.0	3.0	2.0	1.984493481871944	1.053	n/a	stim	poldrack-single-stim	s637	False	1
73.843	1.239	75.082	-5.949889841199362	draw_card	1.239	columbia_card_task_fmri	15.0	0.7142857142857143	89.0	-65.0	0.2857142857142857	10.0	4.0	2.0	3.481620010637876	1.239	n/a	stim	poldrack-single-stim	s637	False	1
75.085	1.747	76.832	-9.759413650723172	draw_card	1.747	columbia_card_task_fmri	15.0	0.6666666666666667	89.0	-65.0	0.3333333333333333	10.0	5.0	2.0	5.051571892302455	1.747	n/a	stim	poldrack-single-stim	s637	False	1
76.835	2.675	79.51	-15.092746984056507	end_round	2.675	columbia_card_task_fmri	15.0	0.6	71.0	-65.0	0.4	10.0	6.0	2.0	6.529228868261505	2.675	5.0	stim	poldrack-single-stim	s637	False	1
80.263	1.5	79.512	n/a	-1.0	2.386	columbia_card_task_fmri	n/a	n/a	-1.0	n/a	n/a	n/a	n/a	n/a	n/a	n/a	n/a	ITI	poldrack-single-stim	s637	False	0
81.901	2.137	84.038	2.507253015943493	draw_card	2.137	columbia_card_task_fmri	17.0	0.8	89.0	-65.0	0.2	10.0	1.0	2.0	0.146417263681208	2.137	1.0	stim	poldrack-single-stim	s637	False	0
84.792	1.5	84.041	n/a	-1.0	2.59	columbia_card_task_fmri	n/a	n/a	-1.0	n/a	n/a	n/a	n/a	n/a	n/a	n/a	n/a	ITI	poldrack-single-stim	s637	False	0
86.634	1.835	88.469	1.0739196826101596	draw_card	1.835	columbia_card_task_fmri	13.0	0.8333333333333334	89.0	-70.0	0.1666666666666666	12.0	1.0	2.0	-1.717969812931461	1.835	n/a	stim	poldrack-single-stim	s637	False	1
88.472	0.722	89.194	-0.1836560749656017	draw_card	0.722	columbia_card_task_fmri	13.0	0.8181818181818181	89.0	-70.0	0.1818181818181818	12.0	2.0	2.0	-0.6395699913129747	0.722	n/a	stim	poldrack-single-stim	s637	False	1
89.196	0.18	89.376	-1.692746984056508	draw_card	0.18	columbia_card_task_fmri	13.0	0.8	89.0	-70.0	0.2	12.0	3.0	2.0	0.5457508433398885	0.18	n/a	stim	poldrack-single-stim	s637	False	1
89.378	0.87	90.248	-3.537191428500953	draw_card	0.87	columbia_card_task_fmri	13.0	0.7777777777777778	89.0	-70.0	0.2222222222222222	12.0	4.0	2.0	1.8500776006503368	0.87	4.0	stim	poldrack-single-stim	s637	False	0
91.002	1.5	90.251	n/a	-1.0	2.318	columbia_card_task_fmri	n/a	n/a	-1.0	n/a	n/a	n/a	n/a	n/a	n/a	n/a	n/a	ITI	poldrack-single-stim	s637	False	0
92.575	1.63	94.205	1.0739196826101596	draw_card	1.63	columbia_card_task_fmri	15.0	0.8333333333333334	89.0	-80.0	0.1666666666666666	12.0	1.0	2.0	2.7467573807677184	1.63	n/a	stim	poldrack-single-stim	s637	False	1
94.206	0.151	94.357	-0.3654742567837834	draw_card	0.151	columbia_card_task_fmri	15.0	0.8181818181818181	89.0	-80.0	0.1818181818181818	12.0	2.0	2.0	3.981605389786708	0.151	n/a	stim	poldrack-single-stim	s637	False	1
94.359	0.768	95.127	-2.0927469840565083	draw_card	0.768	columbia_card_task_fmri	15.0	0.8	89.0	-80.0	0.2	12.0	3.0	2.0	5.338845861025483	0.768	n/a	stim	poldrack-single-stim	s637	False	1
95.129	0.153	95.282	-4.203858095167621	draw_card	0.153	columbia_card_task_fmri	15.0	0.7777777777777778	89.0	-80.0	0.2222222222222222	12.0	4.0	2.0	6.832309482361012	0.153	4.0	stim	poldrack-single-stim	s637	False	0
96.036	1.5	95.285	n/a	-1.0	2.25	columbia_card_task_fmri	n/a	n/a	-1.0	n/a	n/a	n/a	n/a	n/a	n/a	n/a	n/a	ITI	poldrack-single-stim	s637	False	0
97.539	5.123	102.662	0.1072530159434927	draw_card	5.123	columbia_card_task_fmri	14.0	0.8	89.0	-65.0	0.2	15.0	1.0	3.0	-1.0514825147784457	5.123	n/a	stim	poldrack-single-stim	s637	False	1
102.665	1.101	103.766	-1.021318412627935	draw_card	1.101	columbia_card_task_fmri	14.0	0.7857142857142857	89.0	-65.0	0.2142857142857142	15.0	2.0	3.0	-0.23718073881966	1.101	n/a	stim	poldrack-single-stim	s637	False	1
103.768	0.974	104.742	-2.32351621482574	draw_card	0.974	columbia_card_task_fmri	14.0	0.7692307692307692	89.0	-65.0	0.2307692307692307	15.0	3.0	3.0	0.6302903084663498	0.974	n/a	stim	poldrack-single-stim	s637	False	1
104.744	0.866	105.61	-3.842746984056508	draw_card	0.866	columbia_card_task_fmri	14.0	0.75	89.0	-65.0	0.25	15.0	4.0	3.0	1.5521438667934433	0.866	n/a	stim	poldrack-single-stim	s637	False	1
105.613	1.013	106.626	-5.638201529511053	draw_card	1.013	columbia_card_task_fmri	14.0	0.7272727272727273	89.0	-65.0	0.2727272727272727	15.0	5.0	3.0	2.5262494126991726	1.013	n/a	stim	poldrack-single-stim	s637	False	1
106.629	1.763	108.392	-7.792746984056509	draw_card	1.763	columbia_card_task_fmri	14.0	0.7	89.0	-65.0	0.3	15.0	6.0	3.0	3.543565831106953	1.763	n/a	stim	poldrack-single-stim	s637	False	1
108.395	3.329	111.724	-10.42608031738984	end_round	3.329	columbia_card_task_fmri	14.0	0.6666666666666667	71.0	-65.0	0.3333333333333333	15.0	7.0	3.0	4.580776674233327	3.329	6.0	stim	poldrack-single-stim	s637	False	1
112.479	1.5	111.728	n/a	-1.0	2.454	columbia_card_task_fmri	n/a	n/a	-1.0	n/a	n/a	n/a	n/a	n/a	n/a	n/a	n/a	ITI	poldrack-single-stim	s637	False	0
114.185	1.85	116.035	0.0322530159434917	draw_card	1.85	columbia_card_task_fmri	1.0	0.9375	89.0	-45.0	0.0625	16.0	1.0	1.0	-21.41199711059594	1.85	n/a	stim	poldrack-single-stim	s637	False	1
116.038	1.073	117.111	-0.1594136507231747	draw_card	1.073	columbia_card_task_fmri	1.0	0.9333333333333332	89.0	-45.0	0.0666666666666666	16.0	2.0	1.0	-21.07714159475985	1.073	n/a	stim	poldrack-single-stim	s637	False	1
117.115	1.176	118.291	-0.3784612697707938	draw_card	1.176	columbia_card_task_fmri	1.0	0.9285714285714286	89.0	-45.0	0.0714285714285714	16.0	3.0	1.0	-20.70963102528224	1.176	n/a	stim	poldrack-single-stim	s637	False	1
118.292	1.057	119.349	-0.6312085225180466	draw_card	1.057	columbia_card_task_fmri	1.0	0.9230769230769232	89.0	-45.0	0.0769230769230769	16.0	4.0	1.0	-20.30390233938321	1.057	n/a	stim	poldrack-single-stim	s637	False	1
119.353	0.196	119.549	-0.9260803173898418	draw_card	0.196	columbia_card_task_fmri	1.0	0.9166666666666666	89.0	-45.0	0.0833333333333333	16.0	5.0	1.0	-19.85299644009325	0.196	n/a	stim	poldrack-single-stim	s637	False	1
119.551	2.411	121.962	-1.27456516587469	draw_card	2.411	columbia_card_task_fmri	1.0	0.9090909090909092	89.0	-45.0	0.0909090909090909	16.0	6.0	1.0	-19.34808743952029	2.411	6.0	stim	poldrack-single-stim	s637	False	0
122.716	1.5	121.965	n/a	-1.0	3.27	columbia_card_task_fmri	n/a	n/a	-1.0	n/a	n/a	n/a	n/a	n/a	n/a	n/a	n/a	ITI	poldrack-single-stim	s637	False	0
125.238	1.667	126.905	0.9697530159434916	draw_card	1.667	columbia_card_task_fmri	15.0	0.8125	89.0	-70.0	0.1875	16.0	1.0	3.0	0.5223413333195595	1.667	n/a	stim	poldrack-single-stim	s637	False	1
126.908	1.121	128.029	-0.0927469840565082	draw_card	1.121	columbia_card_task_fmri	15.0	0.8	89.0	-70.0	0.2	16.0	2.0	3.0	1.3444649311612338	1.121	2.0	stim	poldrack-single-stim	s637	False	0
128.783	1.5	128.032	n/a	-1.0	2.25	columbia_card_task_fmri	n/a	n/a	-1.0	n/a	n/a	n/a	n/a	n/a	n/a	n/a	n/a	ITI	poldrack-single-stim	s637	False	0
130.286	1.748	132.034	7.907253015943492	draw_card	1.748	columbia_card_task_fmri	30.0	0.7	89.0	-50.0	0.3	10.0	1.0	3.0	4.001196688285319	1.748	n/a	stim	poldrack-single-stim	s637	False	1
132.036	4.19	136.226	5.240586349276831	draw_card	4.19	columbia_card_task_fmri	30.0	0.6666666666666667	89.0	-50.0	0.3333333333333333	10.0	2.0	3.0	5.051571892302455	4.19	n/a	stim	poldrack-single-stim	s637	False	1
136.229	0.188	136.417	1.907253015943492	draw_card	0.188	columbia_card_task_fmri	30.0	0.625	89.0	-50.0	0.375	10.0	3.0	3.0	6.067779044523554	0.188	3.0	stim	poldrack-single-stim	s637	False	0
137.171	1.5	136.42	n/a	-1.0	2.25	columbia_card_task_fmri	n/a	n/a	-1.0	n/a	n/a	n/a	n/a	n/a	n/a	n/a	n/a	ITI	poldrack-single-stim	s637	False	0
138.674	2.616	141.29	7.307253015943492	draw_card	2.616	columbia_card_task_fmri	17.0	0.8666666666666667	89.0	-70.0	0.1333333333333333	15.0	1.0	2.0	-3.073238456155071	2.616	n/a	stim	poldrack-single-stim	s637	False	1
141.294	0.283	141.577	6.478681587372065	draw_card	0.283	columbia_card_task_fmri	17.0	0.8571428571428572	89.0	-70.0	0.1428571428571428	15.0	2.0	2.0	-2.2056442711873814	0.283	n/a	stim	poldrack-single-stim	s637	False	1
141.58	3.564	145.144	5.522637631328107	draw_card	3.564	columbia_card_task_fmri	17.0	0.8461538461538461	89.0	-70.0	0.1538461538461538	15.0	3.0	2.0	-1.2613924996678634	3.564	3.0	stim	poldrack-single-stim	s637	False	0
145.897	1.5	145.146	n/a	-1.0	2.318	columbia_card_task_fmri	n/a	n/a	-1.0	n/a	n/a	n/a	n/a	n/a	n/a	n/a	n/a	ITI	poldrack-single-stim	s637	False	0
147.469	1.781	149.25	2.532253015943492	draw_card	1.781	columbia_card_task_fmri	7.0	0.9375	89.0	-95.0	0.0625	16.0	1.0	1.0	-7.945163175273546	1.781	n/a	stim	poldrack-single-stim	s637	False	1
149.252	2.815	152.067	2.107253015943492	end_round	2.815	columbia_card_task_fmri	7.0	0.9333333333333332	71.0	-95.0	0.0666666666666666	16.0	2.0	1.0	-7.194332488194686	2.815	1.0	stim	poldrack-single-stim	s637	False	1
152.821	1.5	152.07	n/a	-1.0	2.726	columbia_card_task_fmri	n/a	n/a	-1.0	n/a	n/a	n/a	n/a	n/a	n/a	n/a	n/a	ITI	poldrack-single-stim	s637	False	0
154.799	4.85	159.649	4.094753015943492	draw_card	4.85	columbia_card_task_fmri	9.0	0.9375	89.0	-100.0	0.0625	16.0	1.0	1.0	-6.255443987770118	4.85	n/a	stim	poldrack-single-stim	s637	False	1
159.652	0.812	160.464	3.640586349276825	draw_card	0.812	columbia_card_task_fmri	9.0	0.9333333333333332	89.0	-100.0	0.0666666666666666	16.0	2.0	1.0	-5.452798422581385	0.812	n/a	stim	poldrack-single-stim	s637	False	1
160.467	0.999	161.466	3.121538730229207	draw_card	0.999	columbia_card_task_fmri	9.0	0.9285714285714286	89.0	-100.0	0.0714285714285714	16.0	3.0	1.0	-4.572478632989185	0.999	n/a	stim	poldrack-single-stim	s637	False	1
161.469	1.289	162.758	2.522637631328108	draw_card	1.289	columbia_card_task_fmri	9.0	0.9230769230769232	89.0	-100.0	0.0769230769230769	16.0	4.0	1.0	-3.601275067821014	1.289	n/a	stim	poldrack-single-stim	s637	False	1
162.761	3.169	165.93	1.82391968261016	draw_card	3.169	columbia_card_task_fmri	9.0	0.9166666666666666	89.0	-100.0	0.0833333333333333	16.0	5.0	1.0	-2.5226659219294163	3.169	n/a	stim	poldrack-single-stim	s637	False	1
165.933	4.265	170.198	0.9981621068525816	end_round	4.265	columbia_card_task_fmri	9.0	0.9090909090909092	71.0	-100.0	0.0909090909090909	16.0	6.0	1.0	-1.3157008248154405	4.265	5.0	stim	poldrack-single-stim	s637	False	1
170.952	1.5	170.201	n/a	-1.0	2.386	columbia_card_task_fmri	n/a	n/a	-1.0	n/a	n/a	n/a	n/a	n/a	n/a	n/a	n/a	ITI	poldrack-single-stim	s637	False	0
172.592	1.71	174.302	5.032253015943492	draw_card	1.71	columbia_card_task_fmri	15.0	0.875	89.0	-80.0	0.125	16.0	1.0	2.0	-1.2328537341686108	1.71	n/a	stim	poldrack-single-stim	s637	False	1
174.306	1.025	175.331	4.240586349276826	draw_card	1.025	columbia_card_task_fmri	15.0	0.8666666666666667	89.0	-80.0	0.1333333333333333	16.0	2.0	2.0	-0.3589255070246935	1.025	n/a	stim	poldrack-single-stim	s637	False	1
175.334	1.776	177.11	3.3358244445149223	draw_card	1.776	columbia_card_task_fmri	15.0	0.8571428571428572	89.0	-80.0	0.1428571428571428	16.0	3.0	2.0	0.5887551128401824	1.776	n/a	stim	poldrack-single-stim	s637	False	1
177.114	1.97	179.084	2.291868400558875	draw_card	1.97	columbia_card_task_fmri	15.0	0.8461538461538461	89.0	-80.0	0.1538461538461538	16.0	4.0	2.0	1.6201501756742758	1.97	n/a	stim	poldrack-single-stim	s637	False	1
179.087	2.198	181.285	1.0739196826101596	draw_card	2.198	columbia_card_task_fmri	15.0	0.8333333333333334	89.0	-80.0	0.1666666666666666	16.0	5.0	2.0	2.7467573807677184	2.198	5.0	stim	poldrack-single-stim	s637	False	0
182.04	1.5	181.289	n/a	-1.0	2.318	columbia_card_task_fmri	n/a	n/a	-1.0	n/a	n/a	n/a	n/a	n/a	n/a	n/a	n/a	ITI	poldrack-single-stim	s637	False	0
183.611	0.639	184.25	7.157253015943492	draw_card	0.639	columbia_card_task_fmri	16.0	0.875	89.0	-70.0	0.125	16.0	1.0	2.0	-4.203284191529889	0.639	n/a	stim	poldrack-single-stim	s637	False	1
184.253	0.205	184.458	6.440586349276825	draw_card	0.205	columbia_card_task_fmri	16.0	0.8666666666666667	89.0	-70.0	0.1333333333333333	16.0	2.0	2.0	-3.412460228071957	0.205	n/a	stim	poldrack-single-stim	s637	False	1
184.461	3.587	188.048	5.621538730229207	draw_card	3.587	columbia_card_task_fmri	16.0	0.8571428571428572	89.0	-70.0	0.1428571428571428	16.0	3.0	2.0	-2.554878748802168	3.587	n/a	stim	poldrack-single-stim	s637	False	1
188.05	0.143	188.193	4.67648378517426	draw_card	0.143	columbia_card_task_fmri	16.0	0.8461538461538461	89.0	-70.0	0.1538461538461538	16.0	4.0	2.0	-1.6215218400791898	0.143	4.0	stim	poldrack-single-stim	s637	False	0
188.948	1.5	188.197	n/a	-1.0	2.25	columbia_card_task_fmri	n/a	n/a	-1.0	n/a	n/a	n/a	n/a	n/a	n/a	n/a	n/a	ITI	poldrack-single-stim	s637	False	0
190.452	1.732	192.184	8.469753015943493	draw_card	1.732	columbia_card_task_fmri	30.0	0.6875	89.0	-45.0	0.3125	16.0	1.0	5.0	2.1067232699916616	1.732	1.0	stim	poldrack-single-stim	s637	False	0
192.938	1.5	192.187	n/a	-1.0	2.25	columbia_card_task_fmri	n/a	n/a	-1.0	n/a	n/a	n/a	n/a	n/a	n/a	n/a	n/a	ITI	poldrack-single-stim	s637	False	0
194.441	1.347	195.788	0.2405863492768256	draw_card	1.347	columbia_card_task_fmri	13.0	0.8333333333333334	89.0	-75.0	0.1666666666666666	6.0	1.0	1.0	0.1420882470712285	1.347	n/a	stim	poldrack-single-stim	s637	False	1
195.792	1.863	197.655	-2.692746984056508	draw_card	1.863	columbia_card_task_fmri	13.0	0.8	89.0	-75.0	0.2	6.0	2.0	1.0	2.542645409376391	1.863	n/a	stim	poldrack-single-stim	s637	False	1
197.659	1.318	198.977	-7.092746984056508	end_round	1.318	columbia_card_task_fmri	13.0	0.75	71.0	-75.0	0.25	6.0	3.0	1.0	5.443831838737019	1.318	2.0	stim	poldrack-single-stim	s637	False	1
199.731	1.5	198.98	n/a	-1.0	2.454	columbia_card_task_fmri	n/a	n/a	-1.0	n/a	n/a	n/a	n/a	n/a	n/a	n/a	n/a	ITI	poldrack-single-stim	s637	False	0
201.44	0.969	202.409	1.9072530159434933	draw_card	0.969	columbia_card_task_fmri	14.0	0.8333333333333334	89.0	-70.0	0.1666666666666666	6.0	1.0	1.0	-1.3459898464504398	0.969	1.0	stim	poldrack-single-stim	s637	False	0
203.163	1.5	202.412	n/a	-1.0	2.454	columbia_card_task_fmri	n/a	n/a	-1.0	n/a	n/a	n/a	n/a	n/a	n/a	n/a	n/a	ITI	poldrack-single-stim	s637	False	0
204.871	0.891	205.762	1.9072530159434933	draw_card	0.891	columbia_card_task_fmri	16.0	0.8333333333333334	89.0	-80.0	0.1666666666666666	6.0	1.0	1.0	3.118901398452003	0.891	n/a	stim	poldrack-single-stim	s637	False	1
205.765	2.81	208.575	-1.2927469840565076	draw_card	2.81	columbia_card_task_fmri	16.0	0.8	89.0	-80.0	0.2	6.0	2.0	1.0	5.738348214807083	2.81	2.0	stim	poldrack-single-stim	s637	False	0
209.33	1.5	208.579	n/a	-1.0	2.522	columbia_card_task_fmri	n/a	n/a	-1.0	n/a	n/a	n/a	n/a	n/a	n/a	n/a	n/a	ITI	poldrack-single-stim	s637	False	0
211.105	0.346	211.451	4.4072530159434935	draw_card	0.346	columbia_card_task_fmri	17.0	0.8333333333333334	89.0	-70.0	0.1666666666666666	6.0	1.0	1.0	-0.2299539230549285	0.346	n/a	stim	poldrack-single-stim	s637	False	1
211.454	1.67	213.124	1.5072530159434931	draw_card	1.67	columbia_card_task_fmri	17.0	0.8	89.0	-70.0	0.2	6.0	2.0	1.0	2.1432380053925684	1.67	n/a	stim	poldrack-single-stim	s637	False	1
213.127	1.832	214.959	-2.8427469840565083	draw_card	1.832	columbia_card_task_fmri	17.0	0.75	89.0	-70.0	0.25	6.0	3.0	1.0	5.011366731998464	1.832	n/a	stim	poldrack-single-stim	s637	False	1
214.961	1.964	216.925	-10.092746984056507	end_round	1.964	columbia_card_task_fmri	17.0	0.6666666666666667	71.0	-70.0	0.3333333333333333	6.0	4.0	1.0	8.34752993891344	1.964	3.0	stim	poldrack-single-stim	s637	False	1
217.68	1.5	216.929	n/a	-1.0	2.386	columbia_card_task_fmri	n/a	n/a	-1.0	n/a	n/a	n/a	n/a	n/a	n/a	n/a	n/a	ITI	poldrack-single-stim	s637	False	0
219.32	1.525	220.845	4.407253015943492	draw_card	1.525	columbia_card_task_fmri	25.0	0.75	89.0	-65.0	0.25	8.0	1.0	2.0	6.308798491878591	1.525	n/a	stim	poldrack-single-stim	s637	False	1
220.847	1.598	222.445	1.19296730165778	draw_card	1.598	columbia_card_task_fmri	25.0	0.7142857142857143	89.0	-65.0	0.2857142857142857	8.0	2.0	2.0	7.993578126925023	1.598	n/a	stim	poldrack-single-stim	s637	False	1
222.449	2.548	224.997	-3.0927469840565047	draw_card	2.548	columbia_card_task_fmri	25.0	0.6666666666666667	89.0	-65.0	0.3333333333333333	8.0	3.0	2.0	9.760267550693882	2.548	n/a	stim	poldrack-single-stim	s637	False	1
225.0	0.283	225.283	-9.092746984056507	draw_card	0.283	columbia_card_task_fmri	25.0	0.6	89.0	-65.0	0.4	8.0	4.0	2.0	11.423060095503203	0.283	n/a	stim	poldrack-single-stim	s637	False	1
225.286	2.015	227.301	-18.092746984056507	end_round	2.015	columbia_card_task_fmri	25.0	0.5	71.0	-65.0	0.5	8.0	5.0	2.0	12.33141242269398	2.015	4.0	stim	poldrack-single-stim	s637	False	1
228.055	1.5	227.304	n/a	-1.0	2.454	columbia_card_task_fmri	n/a	n/a	-1.0	n/a	n/a	n/a	n/a	n/a	n/a	n/a	n/a	ITI	poldrack-single-stim	s637	False	0
229.763	1.802	231.565	4.407253015943492	draw_card	1.802	columbia_card_task_fmri	30.0	0.75	89.0	-80.0	0.25	8.0	1.0	2.0	14.960579582635368	1.802	n/a	stim	poldrack-single-stim	s637	False	1
231.568	0.718	232.286	0.4786815873720682	draw_card	0.718	columbia_card_task_fmri	30.0	0.7142857142857143	89.0	-80.0	0.2857142857142857	8.0	2.0	2.0	17.020534732341268	0.718	n/a	stim	poldrack-single-stim	s637	False	1
232.289	1.385	233.674	-4.759413650723169	draw_card	1.385	columbia_card_task_fmri	30.0	0.6666666666666667	89.0	-80.0	0.3333333333333333	8.0	3.0	2.0	19.180573259149934	1.385	n/a	stim	poldrack-single-stim	s637	False	1
233.678	2.861	236.539	-12.092746984056507	end_round	2.861	columbia_card_task_fmri	30.0	0.6	71.0	-80.0	0.4	8.0	4.0	2.0	21.213527532136283	2.861	3.0	stim	poldrack-single-stim	s637	False	1
237.294	1.5	236.543	n/a	-1.0	2.522	columbia_card_task_fmri	n/a	n/a	-1.0	n/a	n/a	n/a	n/a	n/a	n/a	n/a	n/a	ITI	poldrack-single-stim	s637	False	0
239.07	1.678	240.748	4.107253015943493	draw_card	1.678	columbia_card_task_fmri	13.0	0.9	89.0	-95.0	0.1	10.0	1.0	1.0	-0.2528999032693093	1.678	n/a	stim	poldrack-single-stim	s637	False	1
240.751	1.914	242.665	2.907253015943492	draw_card	1.914	columbia_card_task_fmri	13.0	0.8888888888888888	89.0	-95.0	0.1111111111111111	10.0	2.0	1.0	1.2856830009305256	1.914	n/a	stim	poldrack-single-stim	s637	False	1
242.669	0.496	243.165	1.4072530159434915	draw_card	0.496	columbia_card_task_fmri	13.0	0.875	89.0	-95.0	0.125	10.0	3.0	1.0	3.059540886070799	0.496	n/a	stim	poldrack-single-stim	s637	False	1
243.169	1.085	244.254	-0.5213184126279353	draw_card	1.085	columbia_card_task_fmri	13.0	0.8571428571428572	89.0	-95.0	0.1428571428571428	10.0	4.0	1.0	5.131236090463197	1.085	n/a	stim	poldrack-single-stim	s637	False	1
244.257	2.384	246.641	-3.0927469840565065	draw_card	2.384	columbia_card_task_fmri	13.0	0.8333333333333334	89.0	-95.0	0.1666666666666666	10.0	5.0	1.0	7.585399503942405	2.384	n/a	stim	poldrack-single-stim	s637	False	1
246.644	3.779	250.423	-6.692746984056508	end_round	3.779	columbia_card_task_fmri	13.0	0.8	71.0	-95.0	0.2	10.0	6.0	1.0	10.533094142213429	3.779	5.0	stim	poldrack-single-stim	s637	False	1
251.178	1.5	250.427	n/a	-1.0	2.522	columbia_card_task_fmri	n/a	n/a	-1.0	n/a	n/a	n/a	n/a	n/a	n/a	n/a	n/a	ITI	poldrack-single-stim	s637	False	0
252.954	1.729	254.683	5.507253015943491	draw_card	1.729	columbia_card_task_fmri	14.0	0.9	89.0	-90.0	0.1	10.0	1.0	1.0	-1.4507466379382024	1.729	n/a	stim	poldrack-single-stim	s637	False	1
254.687	1.549	256.236	4.351697460387935	draw_card	1.549	columbia_card_task_fmri	14.0	0.8888888888888888	89.0	-90.0	0.1111111111111111	10.0	2.0	1.0	0.0306602643998061	1.549	2.0	stim	poldrack-single-stim	s637	False	0
256.991	1.5	256.24	n/a	-1.0	2.59	columbia_card_task_fmri	n/a	n/a	-1.0	n/a	n/a	n/a	n/a	n/a	n/a	n/a	n/a	ITI	poldrack-single-stim	s637	False	0
258.835	0.549	259.384	0.7072530159434924	draw_card	0.549	columbia_card_task_fmri	16.0	0.8	89.0	-70.0	0.2	10.0	1.0	2.0	1.7438443513884463	0.549	1.0	stim	poldrack-single-stim	s637	False	0
260.139	1.5	259.388	n/a	-1.0	2.454	columbia_card_task_fmri	n/a	n/a	-1.0	n/a	n/a	n/a	n/a	n/a	n/a	n/a	n/a	ITI	poldrack-single-stim	s637	False	0
261.847	1.491	263.338	-0.0094136507231743	draw_card	1.491	columbia_card_task_fmri	7.0	0.9166666666666666	89.0	-100.0	0.0833333333333333	12.0	1.0	1.0	-3.0743116914412134	1.491	n/a	stim	poldrack-single-stim	s637	False	1
263.342	0.731	264.073	-0.8200197113292367	draw_card	0.731	columbia_card_task_fmri	7.0	0.9090909090909092	89.0	-100.0	0.0909090909090909	12.0	2.0	1.0	-1.88957853763225	0.731	n/a	stim	poldrack-single-stim	s637	False	1
264.076	1.461	265.537	-1.7927469840565085	draw_card	1.461	columbia_card_task_fmri	7.0	0.9	89.0	-100.0	0.1	12.0	3.0	1.0	-0.552376639826079	1.461	n/a	stim	poldrack-single-stim	s637	False	1
265.541	0.803	266.344	-2.9816358729453976	draw_card	0.803	columbia_card_task_fmri	7.0	0.8888888888888888	89.0	-100.0	0.1111111111111111	12.0	4.0	1.0	0.9719129405771412	0.803	n/a	stim	poldrack-single-stim	s637	False	1
266.348	1.284	267.632	-4.467746984056508	draw_card	1.284	columbia_card_task_fmri	7.0	0.875	89.0	-100.0	0.125	12.0	5.0	1.0	2.7292968521459144	1.284	5.0	stim	poldrack-single-stim	s637	False	0
268.386	1.5	267.635	n/a	-1.0	2.318	columbia_card_task_fmri	n/a	n/a	-1.0	n/a	n/a	n/a	n/a	n/a	n/a	n/a	n/a	ITI	poldrack-single-stim	s637	False	0
269.96	0.619	270.579	0.2405863492768274	draw_card	0.619	columbia_card_task_fmri	14.0	0.8333333333333334	89.0	-80.0	0.1666666666666666	12.0	1.0	2.0	2.3746246994034834	0.619	n/a	stim	poldrack-single-stim	s637	False	1
270.582	0.175	270.757	-1.1836560749656018	draw_card	0.175	columbia_card_task_fmri	14.0	0.8181818181818181	89.0	-80.0	0.1818181818181818	12.0	2.0	2.0	3.596437769917358	0.175	n/a	stim	poldrack-single-stim	s637	False	1
270.762	2.389	273.151	-2.892746984056507	draw_card	2.389	columbia_card_task_fmri	14.0	0.8	89.0	-80.0	0.2	12.0	3.0	2.0	4.939354075289216	2.389	3.0	stim	poldrack-single-stim	s637	False	0
273.905	1.5	273.154	n/a	-1.0	2.25	columbia_card_task_fmri	n/a	n/a	-1.0	n/a	n/a	n/a	n/a	n/a	n/a	n/a	n/a	ITI	poldrack-single-stim	s637	False	0
275.408	0.659	276.067	1.907253015943492	draw_card	0.659	columbia_card_task_fmri	15.0	0.8333333333333334	89.0	-75.0	0.1666666666666666	12.0	1.0	2.0	0.8862148712929638	0.659	n/a	stim	poldrack-single-stim	s637	False	1
276.072	0.97	277.042	0.5436166523071266	draw_card	0.97	columbia_card_task_fmri	15.0	0.8181818181818181	89.0	-75.0	0.1818181818181818	12.0	2.0	2.0	2.055884142839432	0.97	2.0	stim	poldrack-single-stim	s637	False	0
277.797	1.5	277.046	n/a	-1.0	2.658	columbia_card_task_fmri	n/a	n/a	-1.0	n/a	n/a	n/a	n/a	n/a	n/a	n/a	n/a	ITI	poldrack-single-stim	s637	False	0
279.71	3.919	283.629	0.9072530159434916	draw_card	3.919	columbia_card_task_fmri	15.0	0.8	89.0	-65.0	0.2	15.0	1.0	3.0	-0.6522000441742151	3.919	n/a	stim	poldrack-single-stim	s637	False	1
283.632	0.633	284.265	-0.2356041269136506	draw_card	0.633	columbia_card_task_fmri	15.0	0.7857142857142857	89.0	-65.0	0.2142857142857142	15.0	2.0	3.0	0.1724455983295243	0.633	n/a	stim	poldrack-single-stim	s637	False	1
284.269	0.757	285.026	-1.5542854455949715	draw_card	0.757	columbia_card_task_fmri	15.0	0.7692307692307692	89.0	-65.0	0.2307692307692307	15.0	3.0	3.0	1.0509339596989662	0.757	n/a	stim	poldrack-single-stim	s637	False	1
285.029	0.158	285.187	-3.0927469840565083	draw_card	0.158	columbia_card_task_fmri	15.0	0.75	89.0	-65.0	0.25	15.0	4.0	3.0	1.984493481871944	0.158	n/a	stim	poldrack-single-stim	s637	False	1
285.192	1.753	286.945	-4.910928802238325	end_round	1.753	columbia_card_task_fmri	15.0	0.7272727272727273	71.0	-65.0	0.2727272727272727	15.0	5.0	3.0	2.9709664025286813	1.753	4.0	stim	poldrack-single-stim	s637	False	1
287.7	1.5	286.949	n/a	-1.0	2.454	columbia_card_task_fmri	n/a	n/a	-1.0	n/a	n/a	n/a	n/a	n/a	n/a	n/a	n/a	ITI	poldrack-single-stim	s637	False	0
289.409	1.175	290.584	0.1572530159434917	draw_card	1.175	columbia_card_task_fmri	14.0	0.8125	89.0	-70.0	0.1875	16.0	1.0	3.0	0.1326799695718108	1.175	1.0	stim	poldrack-single-stim	s637	False	0
291.339	1.5	290.588	n/a	-1.0	2.386	columbia_card_task_fmri	n/a	n/a	-1.0	n/a	n/a	n/a	n/a	n/a	n/a	n/a	n/a	ITI	poldrack-single-stim	s637	False	0
292.979	1.028	294.007	0.0947530159434917	draw_card	1.028	columbia_card_task_fmri	11.0	0.6875	89.0	-30.0	0.3125	16.0	1.0	5.0	-13.60951204813837	1.028	n/a	stim	poldrack-single-stim	s637	False	1
294.012	1.148	295.16	-0.7594136507231743	draw_card	1.148	columbia_card_task_fmri	11.0	0.6666666666666667	89.0	-30.0	0.3333333333333333	16.0	2.0	5.0	-13.287525803686236	1.148	2.0	stim	poldrack-single-stim	s637	False	0
295.914	1.5	295.163	n/a	-1.0	2.59	columbia_card_task_fmri	n/a	n/a	-1.0	n/a	n/a	n/a	n/a	n/a	n/a	n/a	n/a	ITI	poldrack-single-stim	s637	False	0
297.759	0.945	298.704	4.907253015943492	draw_card	0.945	columbia_card_task_fmri	15.0	0.8666666666666667	89.0	-75.0	0.1333333333333333	15.0	1.0	2.0	-2.055478375574424	0.945	n/a	stim	poldrack-single-stim	s637	False	1
298.708	1.301	300.009	4.050110158800636	draw_card	1.301	columbia_card_task_fmri	15.0	0.8571428571428572	89.0	-75.0	0.1428571428571428	15.0	2.0	2.0	-1.1578487478579191	1.301	n/a	stim	poldrack-single-stim	s637	False	1
300.013	1.008	301.021	3.061099169789645	draw_card	1.008	columbia_card_task_fmri	15.0	0.8461538461538461	89.0	-75.0	0.1538461538461538	15.0	3.0	2.0	-0.1809151327826654	1.008	n/a	stim	poldrack-single-stim	s637	False	1
301.025	1.718	302.743	1.907253015943492	draw_card	1.718	columbia_card_task_fmri	15.0	0.8333333333333334	89.0	-75.0	0.1666666666666666	15.0	4.0	2.0	0.8862148712929638	1.718	n/a	stim	poldrack-single-stim	s637	False	1
302.747	3.458	306.205	0.5436166523071266	draw_card	3.458	columbia_card_task_fmri	15.0	0.8181818181818181	89.0	-75.0	0.1818181818181818	15.0	5.0	2.0	2.055884142839432	3.458	n/a	stim	poldrack-single-stim	s637	False	1
306.209	1.632	307.841	-1.0927469840565085	end_round	1.632	columbia_card_task_fmri	15.0	0.8	71.0	-75.0	0.2	15.0	6.0	2.0	3.341499639216636	1.632	5.0	stim	poldrack-single-stim	s637	False	1
308.597	1.5	307.846	n/a	-1.0	2.318	columbia_card_task_fmri	n/a	n/a	-1.0	n/a	n/a	n/a	n/a	n/a	n/a	n/a	n/a	ITI	poldrack-single-stim	s637	False	0
310.17	1.606	311.776	6.640586349276826	draw_card	1.606	columbia_card_task_fmri	17.0	0.8666666666666667	89.0	-75.0	0.1333333333333333	15.0	1.0	2.0	-1.3768978149639857	1.606	n/a	stim	poldrack-single-stim	s637	False	1
311.779	1.391	313.17	5.764395873086351	draw_card	1.391	columbia_card_task_fmri	17.0	0.8571428571428572	89.0	-75.0	0.1428571428571428	15.0	2.0	2.0	-0.4592466436617286	1.391	n/a	stim	poldrack-single-stim	s637	False	1
313.173	1.392	314.565	4.753406862097338	draw_card	1.392	columbia_card_task_fmri	17.0	0.8461538461538461	89.0	-75.0	0.1538461538461538	15.0	3.0	2.0	0.5394727273481124	1.392	n/a	stim	poldrack-single-stim	s637	False	1
314.569	1.748	316.317	3.57391968261016	draw_card	1.748	columbia_card_task_fmri	17.0	0.8333333333333334	89.0	-75.0	0.1666666666666666	15.0	4.0	2.0	1.630394819831686	1.748	n/a	stim	poldrack-single-stim	s637	False	1
316.322	2.493	318.815	2.1799802886707638	end_round	2.493	columbia_card_task_fmri	17.0	0.8181818181818181	71.0	-75.0	0.1818181818181818	15.0	5.0	2.0	2.8261368259962083	2.493	4.0	stim	poldrack-single-stim	s637	False	1
319.57	1.5	318.819	n/a	-1.0	2.59	columbia_card_task_fmri	n/a	n/a	-1.0	n/a	n/a	n/a	n/a	n/a	n/a	n/a	n/a	ITI	poldrack-single-stim	s637	False	0
321.413	0.72	322.133	2.219753015943492	draw_card	0.72	columbia_card_task_fmri	2.0	0.9375	89.0	-25.0	0.0625	16.0	1.0	1.0	-25.900723440848576	0.72	n/a	stim	poldrack-single-stim	s637	False	1
322.136	0.156	322.292	2.107253015943492	draw_card	0.156	columbia_card_task_fmri	2.0	0.9333333333333332	89.0	-25.0	0.0666666666666666	16.0	2.0	1.0	-25.709157802323887	0.156	n/a	stim	poldrack-single-stim	s637	False	1
322.297	1.555	323.852	1.9786815873720636	draw_card	1.555	columbia_card_task_fmri	2.0	0.9285714285714286	89.0	-25.0	0.0714285714285714	16.0	3.0	1.0	-25.4986021659958	1.555	n/a	stim	poldrack-single-stim	s637	False	1
323.856	1.449	325.305	1.8303299390204149	draw_card	1.449	columbia_card_task_fmri	2.0	0.9230769230769232	89.0	-25.0	0.0769230769230769	16.0	4.0	1.0	-25.26580743261705	1.449	n/a	stim	poldrack-single-stim	s637	False	1
325.309	0.122	325.431	1.657253015943492	draw_card	0.122	columbia_card_task_fmri	2.0	0.9166666666666666	89.0	-25.0	0.0833333333333333	16.0	5.0	1.0	-25.006707579739867	0.122	n/a	stim	poldrack-single-stim	s637	False	1
325.435	1.668	327.103	1.452707561398037	draw_card	1.668	columbia_card_task_fmri	2.0	0.9090909090909092	89.0	-25.0	0.0909090909090909	16.0	6.0	1.0	-24.716143830432976	1.668	n/a	stim	poldrack-single-stim	s637	False	1
327.106	3.561	330.667	1.2072530159434918	end_round	3.561	columbia_card_task_fmri	2.0	0.9	71.0	-25.0	0.1	16.0	7.0	1.0	-24.387472245969988	3.561	6.0	stim	poldrack-single-stim	s637	False	1
331.423	1.5	330.672	n/a	-1.0	2.386	columbia_card_task_fmri	n/a	n/a	-1.0	n/a	n/a	n/a	n/a	n/a	n/a	n/a	n/a	ITI	poldrack-single-stim	s637	False	0
333.063	1.568	334.631	4.407253015943492	draw_card	1.568	columbia_card_task_fmri	9.0	0.9375	89.0	-95.0	0.0625	16.0	1.0	1.0	-7.462450701753973	1.568	n/a	stim	poldrack-single-stim	s637	False	1
334.636	0.941	335.577	3.973919682610159	draw_card	0.941	columbia_card_task_fmri	9.0	0.9333333333333332	89.0	-95.0	0.0666666666666666	16.0	2.0	1.0	-6.6968138874405625	0.941	n/a	stim	poldrack-single-stim	s637	False	1
335.581	0.696	336.277	3.478681587372064	draw_card	0.696	columbia_card_task_fmri	9.0	0.9285714285714286	89.0	-95.0	0.0714285714285714	16.0	3.0	1.0	-5.857071817801135	0.696	n/a	stim	poldrack-single-stim	s637	False	1
336.282	0.634	336.916	2.907253015943492	draw_card	0.634	columbia_card_task_fmri	9.0	0.9230769230769232	89.0	-95.0	0.0769230769230769	16.0	4.0	1.0	-4.930621440586059	0.634	n/a	stim	poldrack-single-stim	s637	False	1
336.92	0.163	337.083	2.2405863492768257	draw_card	0.163	columbia_card_task_fmri	9.0	0.9166666666666666	89.0	-95.0	0.0833333333333333	16.0	5.0	1.0	-3.9016994740981694	0.163	n/a	stim	poldrack-single-stim	s637	False	1
337.087	1.929	339.016	1.4527075613980367	draw_card	1.929	columbia_card_task_fmri	9.0	0.9090909090909092	89.0	-95.0	0.0909090909090909	16.0	6.0	1.0	-2.750317319396018	1.929	n/a	stim	poldrack-single-stim	s637	False	1
339.02	0.128	339.148	0.5072530159434914	draw_card	0.128	columbia_card_task_fmri	9.0	0.9	89.0	-95.0	0.1	16.0	7.0	1.0	-1.4507466379382024	0.128	n/a	stim	poldrack-single-stim	s637	False	1
339.152	3.262	342.414	-0.6483025396120636	end_round	3.262	columbia_card_task_fmri	9.0	0.8888888888888888	71.0	-95.0	0.1111111111111111	16.0	8.0	1.0	0.0306602643998061	3.262	7.0	stim	poldrack-single-stim	s637	False	1
343.17	1.5	342.419	n/a	-1.0	2.318	columbia_card_task_fmri	n/a	n/a	-1.0	n/a	n/a	n/a	n/a	n/a	n/a	n/a	n/a	ITI	poldrack-single-stim	s637	False	0
344.742	1.795	346.537	5.969753015943492	draw_card	1.795	columbia_card_task_fmri	11.0	0.9375	89.0	-100.0	0.0625	16.0	1.0	1.0	-5.772558366338654	1.795	1.0	stim	poldrack-single-stim	s637	False	0
347.292	1.5	346.541	n/a	-1.0	2.318	columbia_card_task_fmri	n/a	n/a	-1.0	n/a	n/a	n/a	n/a	n/a	n/a	n/a	n/a	ITI	poldrack-single-stim	s637	False	0
348.864	0.894	349.758	6.532253015943492	draw_card	0.894	columbia_card_task_fmri	16.0	0.875	89.0	-75.0	0.125	16.0	1.0	2.0	-2.5531920948335483	0.894	n/a	stim	poldrack-single-stim	s637	False	1
349.762	1.151	350.913	5.773919682610159	draw_card	1.151	columbia_card_task_fmri	16.0	0.8666666666666667	89.0	-75.0	0.1333333333333333	16.0	2.0	2.0	-1.716195155962431	1.151	n/a	stim	poldrack-single-stim	s637	False	1
350.918	0.177	351.095	4.9072530159434935	draw_card	0.177	columbia_card_task_fmri	16.0	0.8571428571428572	89.0	-75.0	0.1428571428571428	16.0	3.0	2.0	-0.8085545570232817	0.177	3.0	stim	poldrack-single-stim	s637	False	0
351.85	1.5	351.099	n/a	-1.0	2.318	columbia_card_task_fmri	n/a	n/a	-1.0	n/a	n/a	n/a	n/a	n/a	n/a	n/a	n/a	ITI	poldrack-single-stim	s637	False	0
353.423	2.334	355.757	6.782253015943492	draw_card	2.334	columbia_card_task_fmri	17.0	0.875	89.0	-80.0	0.125	16.0	1.0	2.0	-0.5726062941508161	2.334	n/a	stim	poldrack-single-stim	s637	False	1
355.761	0.131	355.892	5.97391968261016	draw_card	0.131	columbia_card_task_fmri	17.0	0.8666666666666667	89.0	-80.0	0.1333333333333333	16.0	2.0	2.0	0.3197854782743619	0.131	n/a	stim	poldrack-single-stim	s637	False	1
355.896	1.49	357.386	5.050110158800638	draw_card	1.49	columbia_card_task_fmri	17.0	0.8571428571428572	89.0	-80.0	0.1428571428571428	16.0	3.0	2.0	1.2874839558271844	1.49	n/a	stim	poldrack-single-stim	s637	False	1
357.39	2.082	359.472	3.984176092866568	draw_card	2.082	columbia_card_task_fmri	17.0	0.8461538461538461	89.0	-80.0	0.1538461538461538	16.0	4.0	2.0	2.3406609920164243	2.082	n/a	stim	poldrack-single-stim	s637	False	1
359.477	3.688	363.165	2.7405863492768274	end_round	3.688	columbia_card_task_fmri	17.0	0.8333333333333334	71.0	-80.0	0.1666666666666666	16.0	5.0	2.0	3.49105640283711	3.688	4.0	stim	poldrack-single-stim	s637	False	1
363.921	1.5	363.17	n/a	-1.0	2.386	columbia_card_task_fmri	n/a	n/a	-1.0	n/a	n/a	n/a	n/a	n/a	n/a	n/a	n/a	ITI	poldrack-single-stim	s637	False	0
376.565	2.46	379.025	1.0739196826101596	draw_card	2.46	columbia_card_task_fmri	13.0	0.8333333333333334	89.0	-70.0	0.1666666666666666	6.0	1.0	1.0	-1.717969812931461	2.46	1.0	stim	poldrack-single-stim	s637	False	0
379.78	1.5	379.029	n/a	-1.0	2.25	columbia_card_task_fmri	n/a	n/a	-1.0	n/a	n/a	n/a	n/a	n/a	n/a	n/a	n/a	ITI	poldrack-single-stim	s637	False	0
381.285	1.974	383.259	1.0739196826101596	draw_card	1.974	columbia_card_task_fmri	15.0	0.8333333333333334	89.0	-80.0	0.1666666666666666	6.0	1.0	1.0	2.7467573807677184	1.974	n/a	stim	poldrack-single-stim	s637	False	1
383.264	1.025	384.289	-2.0927469840565083	draw_card	1.025	columbia_card_task_fmri	15.0	0.8	89.0	-80.0	0.2	6.0	2.0	1.0	5.338845861025483	1.025	n/a	stim	poldrack-single-stim	s637	False	1
384.293	1.491	385.784	-6.842746984056508	draw_card	1.491	columbia_card_task_fmri	15.0	0.75	89.0	-80.0	0.25	6.0	3.0	1.0	8.47140982982689	1.491	n/a	stim	poldrack-single-stim	s637	False	1
385.787	0.165	385.952	-14.759413650723172	draw_card	0.165	columbia_card_task_fmri	15.0	0.6666666666666667	89.0	-80.0	0.3333333333333333	6.0	4.0	1.0	12.115037092826348	0.165	n/a	stim	poldrack-single-stim	s637	False	1
385.957	1.375	387.332	-30.592746984056507	end_round	1.375	columbia_card_task_fmri	15.0	0.5	71.0	-80.0	0.5	6.0	5.0	1.0	14.829287876936334	1.375	4.0	stim	poldrack-single-stim	s637	False	1
388.088	1.5	387.337	n/a	-1.0	2.386	columbia_card_task_fmri	n/a	n/a	-1.0	n/a	n/a	n/a	n/a	n/a	n/a	n/a	n/a	ITI	poldrack-single-stim	s637	False	0
389.728	1.047	390.775	2.7405863492768257	draw_card	1.047	columbia_card_task_fmri	16.0	0.8333333333333334	89.0	-75.0	0.1666666666666666	6.0	1.0	1.0	1.25829839906703	1.047	n/a	stim	poldrack-single-stim	s637	False	1
390.78	1.181	391.961	-0.2927469840565075	draw_card	1.181	columbia_card_task_fmri	16.0	0.8	89.0	-75.0	0.2	6.0	2.0	1.0	3.74094560108437	1.181	n/a	stim	poldrack-single-stim	s637	False	1
391.965	2.06	394.025	-4.842746984056508	draw_card	2.06	columbia_card_task_fmri	16.0	0.75	89.0	-75.0	0.25	6.0	3.0	1.0	6.741299239324306	2.06	n/a	stim	poldrack-single-stim	s637	False	1
394.03	2.371	396.401	-12.42608031738984	end_round	2.371	columbia_card_task_fmri	16.0	0.6666666666666667	71.0	-75.0	0.3333333333333333	6.0	4.0	1.0	10.231201680993102	2.371	3.0	stim	poldrack-single-stim	s637	False	1
397.156	1.5	396.405	n/a	-1.0	2.59	columbia_card_task_fmri	n/a	n/a	-1.0	n/a	n/a	n/a	n/a	n/a	n/a	n/a	n/a	ITI	poldrack-single-stim	s637	False	0
399.001	1.39	400.391	3.907253015943492	draw_card	1.39	columbia_card_task_fmri	21.0	0.75	89.0	-55.0	0.25	8.0	1.0	2.0	0.2551994642223363	1.39	n/a	stim	poldrack-single-stim	s637	False	1
400.395	1.328	401.723	1.1929673016577782	draw_card	1.328	columbia_card_task_fmri	21.0	0.7142857142857143	89.0	-55.0	0.2857142857142857	8.0	2.0	2.0	1.6772471407348348	1.328	n/a	stim	poldrack-single-stim	s637	False	1
401.728	1.801	403.529	-2.426080317389838	draw_card	1.801	columbia_card_task_fmri	21.0	0.6666666666666667	89.0	-55.0	0.3333333333333333	8.0	3.0	2.0	3.1684870277260018	1.801	n/a	stim	poldrack-single-stim	s637	False	1
403.534	0.176	403.71	-7.492746984056509	draw_card	0.176	columbia_card_task_fmri	21.0	0.6	89.0	-55.0	0.4	8.0	4.0	2.0	4.572075028834881	0.176	4.0	stim	poldrack-single-stim	s637	False	0
404.465	1.5	403.714	n/a	-1.0	2.658	columbia_card_task_fmri	n/a	n/a	-1.0	n/a	n/a	n/a	n/a	n/a	n/a	n/a	n/a	ITI	poldrack-single-stim	s637	False	0
406.377	0.859	407.236	5.157253015943492	draw_card	0.859	columbia_card_task_fmri	26.0	0.75	89.0	-65.0	0.25	8.0	1.0	2.0	6.741299239324306	0.859	n/a	stim	poldrack-single-stim	s637	False	1
407.241	3.21	410.451	1.9072530159434955	draw_card	3.21	columbia_card_task_fmri	26.0	0.7142857142857143	89.0	-65.0	0.2857142857142857	8.0	2.0	2.0	8.444841291934395	3.21	2.0	stim	poldrack-single-stim	s637	False	0
411.207	1.5	410.456	n/a	-1.0	2.386	columbia_card_task_fmri	n/a	n/a	-1.0	n/a	n/a	n/a	n/a	n/a	n/a	n/a	n/a	ITI	poldrack-single-stim	s637	False	0
412.847	0.816	413.663	0.2405863492768256	draw_card	0.816	columbia_card_task_fmri	15.0	0.7777777777777778	89.0	-60.0	0.2222222222222222	9.0	1.0	2.0	-1.4702320188980451	0.816	1.0	stim	poldrack-single-stim	s637	False	0
414.418	1.5	413.667	n/a	-1.0	2.386	columbia_card_task_fmri	n/a	n/a	-1.0	n/a	n/a	n/a	n/a	n/a	n/a	n/a	n/a	ITI	poldrack-single-stim	s637	False	0
416.058	1.034	417.092	4.607253015943493	draw_card	1.034	columbia_card_task_fmri	13.0	0.9	89.0	-90.0	0.1	10.0	1.0	1.0	-1.7501822627709591	1.034	n/a	stim	poldrack-single-stim	s637	False	1
417.095	0.169	417.264	3.462808571499047	draw_card	0.169	columbia_card_task_fmri	13.0	0.8888888888888888	89.0	-90.0	0.1111111111111111	10.0	2.0	1.0	-0.283070532009674	0.169	n/a	stim	poldrack-single-stim	s637	False	1
417.269	2.508	419.777	2.032253015943492	draw_card	2.508	columbia_card_task_fmri	13.0	0.875	89.0	-90.0	0.125	10.0	3.0	1.0	1.4084127159772135	2.508	n/a	stim	poldrack-single-stim	s637	False	1
419.781	1.714	421.495	0.1929673016577799	draw_card	1.714	columbia_card_task_fmri	13.0	0.8571428571428572	89.0	-90.0	0.1428571428571428	10.0	4.0	1.0	3.383932130796069	1.714	n/a	stim	poldrack-single-stim	s637	False	1
421.5	1.429	422.929	-2.2594136507231743	draw_card	1.429	columbia_card_task_fmri	13.0	0.8333333333333334	89.0	-90.0	0.1666666666666666	10.0	5.0	1.0	5.724199276350021	1.429	5.0	stim	poldrack-single-stim	s637	False	0
423.684	1.5	422.933	n/a	-1.0	2.25	columbia_card_task_fmri	n/a	n/a	-1.0	n/a	n/a	n/a	n/a	n/a	n/a	n/a	n/a	ITI	poldrack-single-stim	s637	False	0
425.19	0.522	425.712	5.907253015943492	draw_card	0.522	columbia_card_task_fmri	15.0	0.9	89.0	-95.0	0.1	10.0	1.0	1.0	0.3460820390988743	0.522	n/a	stim	poldrack-single-stim	s637	False	1
425.716	1.409	427.125	4.6850307937212685	draw_card	1.409	columbia_card_task_fmri	15.0	0.8888888888888888	89.0	-95.0	0.1111111111111111	10.0	2.0	1.0	1.9132503106466172	1.409	n/a	stim	poldrack-single-stim	s637	False	1
427.129	1.472	428.601	3.157253015943492	draw_card	1.472	columbia_card_task_fmri	15.0	0.875	89.0	-95.0	0.125	10.0	3.0	1.0	3.720054802376879	1.472	n/a	stim	poldrack-single-stim	s637	False	1
428.605	1.445	430.05	1.1929673016577782	draw_card	1.445	columbia_card_task_fmri	15.0	0.8571428571428572	89.0	-95.0	0.1428571428571428	10.0	4.0	1.0	5.830216911235645	1.445	n/a	stim	poldrack-single-stim	s637	False	1
430.055	1.967	432.022	-1.4260803173898404	end_round	1.967	columbia_card_task_fmri	15.0	0.8333333333333334	71.0	-95.0	0.1666666666666666	10.0	5.0	1.0	8.329935241258823	1.967	4.0	stim	poldrack-single-stim	s637	False	1
432.777	1.5	432.026	n/a	-1.0	2.318	columbia_card_task_fmri	n/a	n/a	-1.0	n/a	n/a	n/a	n/a	n/a	n/a	n/a	n/a	ITI	poldrack-single-stim	s637	False	0
434.351	0.603	434.954	1.7072530159434924	draw_card	0.603	columbia_card_task_fmri	16.0	0.8	89.0	-65.0	0.2	10.0	1.0	2.0	-0.2528999032693164	0.603	n/a	stim	poldrack-single-stim	s637	False	1
434.958	0.143	435.101	-0.0927469840565065	draw_card	0.143	columbia_card_task_fmri	16.0	0.7777777777777778	89.0	-65.0	0.2222222222222222	10.0	2.0	2.0	1.0198965965893905	0.143	n/a	stim	poldrack-single-stim	s637	False	1
435.105	2.194	437.299	-2.3427469840565083	draw_card	2.194	columbia_card_task_fmri	16.0	0.75	89.0	-65.0	0.25	10.0	3.0	2.0	2.4168594327978923	2.194	n/a	stim	poldrack-single-stim	s637	False	1
437.304	0.108	437.412	-5.235604126913649	draw_card	0.108	columbia_card_task_fmri	16.0	0.7142857142857143	89.0	-65.0	0.2857142857142857	10.0	4.0	2.0	3.9327539291086353	0.108	n/a	stim	poldrack-single-stim	s637	False	1
437.417	3.464	440.881	-9.092746984056504	end_round	3.464	columbia_card_task_fmri	16.0	0.6666666666666667	71.0	-65.0	0.3333333333333333	10.0	5.0	2.0	5.522382126443091	3.464	4.0	stim	poldrack-single-stim	s637	False	1
441.637	1.5	440.886	n/a	-1.0	2.25	columbia_card_task_fmri	n/a	n/a	-1.0	n/a	n/a	n/a	n/a	n/a	n/a	n/a	n/a	ITI	poldrack-single-stim	s637	False	0
443.142	0.963	444.105	0.4072530159434917	draw_card	0.963	columbia_card_task_fmri	7.0	0.9166666666666666	89.0	-95.0	0.0833333333333333	12.0	1.0	1.0	-4.453233731099022	0.963	n/a	stim	poldrack-single-stim	s637	False	1
444.11	3.695	447.805	-0.3654742567837816	draw_card	3.695	columbia_card_task_fmri	7.0	0.9090909090909092	89.0	-95.0	0.0909090909090909	12.0	2.0	1.0	-3.3240877712009755	3.695	n/a	stim	poldrack-single-stim	s637	False	1
447.808	0.129	447.937	-1.2927469840565085	draw_card	0.129	columbia_card_task_fmri	7.0	0.9	89.0	-95.0	0.1	12.0	3.0	1.0	-2.0496068532437306	0.129	n/a	stim	poldrack-single-stim	s637	False	1
447.941	0.304	448.245	-2.426080317389842	draw_card	0.304	columbia_card_task_fmri	7.0	0.8888888888888888	89.0	-95.0	0.1111111111111111	12.0	4.0	1.0	-0.5967907897586358	0.304	n/a	stim	poldrack-single-stim	s637	False	1
448.249	0.264	448.513	-3.842746984056508	draw_card	0.264	columbia_card_task_fmri	7.0	0.875	89.0	-95.0	0.125	12.0	5.0	1.0	1.0782160305612578	0.264	n/a	stim	poldrack-single-stim	s637	False	1
448.518	1.044	449.562	-5.66417555548508	draw_card	1.044	columbia_card_task_fmri	7.0	0.8571428571428572	89.0	-95.0	0.1428571428571428	12.0	6.0	1.0	3.034498711790171	1.044	n/a	stim	poldrack-single-stim	s637	False	1
449.567	1.84	451.407	-8.092746984056507	end_round	1.84	columbia_card_task_fmri	7.0	0.8333333333333334	71.0	-95.0	0.1666666666666666	12.0	7.0	1.0	5.351984945165015	1.84	6.0	stim	poldrack-single-stim	s637	False	1
452.162	1.5	451.411	n/a	-1.0	2.25	columbia_card_task_fmri	n/a	n/a	-1.0	n/a	n/a	n/a	n/a	n/a	n/a	n/a	n/a	ITI	poldrack-single-stim	s637	False	0
453.667	1.152	454.819	1.0739196826101596	draw_card	1.152	columbia_card_task_fmri	14.0	0.8333333333333334	89.0	-75.0	0.1666666666666666	12.0	1.0	2.0	0.5141446696958454	1.152	n/a	stim	poldrack-single-stim	s637	False	1
454.824	0.158	454.982	-0.2745651658746917	draw_card	0.158	columbia_card_task_fmri	14.0	0.8181818181818181	89.0	-75.0	0.1818181818181818	12.0	2.0	2.0	1.670776912723781	0.158	n/a	stim	poldrack-single-stim	s637	False	1
454.987	0.796	455.783	-1.8927469840565072	draw_card	0.796	columbia_card_task_fmri	14.0	0.8	89.0	-75.0	0.2	12.0	3.0	2.0	2.942066101206862	0.796	n/a	stim	poldrack-single-stim	s637	False	1
455.788	0.676	456.464	-3.8705247618342833	draw_card	0.676	columbia_card_task_fmri	14.0	0.7777777777777778	89.0	-75.0	0.2222222222222222	12.0	4.0	2.0	4.340970011674045	0.676	n/a	stim	poldrack-single-stim	s637	False	1
456.469	3.525	459.994	-6.342746984056508	draw_card	3.525	columbia_card_task_fmri	14.0	0.75	89.0	-75.0	0.25	12.0	5.0	2.0	5.876309228173156	3.525	5.0	stim	poldrack-single-stim	s637	False	0
460.75	1.5	459.999	n/a	-1.0	2.386	columbia_card_task_fmri	n/a	n/a	-1.0	n/a	n/a	n/a	n/a	n/a	n/a	n/a	n/a	ITI	poldrack-single-stim	s637	False	0
462.392	0.749	463.141	2.7405863492768257	draw_card	0.749	columbia_card_task_fmri	15.0	0.8333333333333334	89.0	-70.0	0.1666666666666666	12.0	1.0	2.0	-0.973993500777361	0.749	n/a	stim	poldrack-single-stim	s637	False	1
463.146	0.59	463.736	1.452707561398035	draw_card	0.59	columbia_card_task_fmri	15.0	0.8181818181818181	89.0	-70.0	0.1818181818181818	12.0	2.0	2.0	0.1304858607459209	0.59	2.0	stim	poldrack-single-stim	s637	False	0
464.491	1.5	463.74	n/a	-1.0	2.386	columbia_card_task_fmri	n/a	n/a	-1.0	n/a	n/a	n/a	n/a	n/a	n/a	n/a	n/a	ITI	poldrack-single-stim	s637	False	0
466.133	0.917	467.05	0.7072530159434924	draw_card	0.917	columbia_card_task_fmri	16.0	0.8	89.0	-70.0	0.2	15.0	1.0	3.0	1.7438443513884463	0.917	1.0	stim	poldrack-single-stim	s637	False	0
467.806	1.5	467.055	n/a	-1.0	2.726	columbia_card_task_fmri	n/a	n/a	-1.0	n/a	n/a	n/a	n/a	n/a	n/a	n/a	n/a	ITI	poldrack-single-stim	s637	False	0
469.788	1.129	470.917	1.0947530159434915	draw_card	1.129	columbia_card_task_fmri	14.0	0.8125	89.0	-65.0	0.1875	16.0	1.0	3.0	-1.815380306106796	1.129	n/a	stim	poldrack-single-stim	s637	False	1
470.922	1.978	472.9	0.1072530159434927	draw_card	1.978	columbia_card_task_fmri	14.0	0.8	89.0	-65.0	0.2	16.0	2.0	3.0	-1.0514825147784457	1.978	n/a	stim	poldrack-single-stim	s637	False	1
472.904	1.144	474.048	-1.021318412627935	draw_card	1.144	columbia_card_task_fmri	14.0	0.7857142857142857	89.0	-65.0	0.2142857142857142	16.0	3.0	3.0	-0.23718073881966	1.144	n/a	stim	poldrack-single-stim	s637	False	1
474.054	1.92	475.974	-2.32351621482574	end_round	1.92	columbia_card_task_fmri	14.0	0.7692307692307692	71.0	-65.0	0.2307692307692307	16.0	4.0	3.0	0.6302903084663498	1.92	3.0	stim	poldrack-single-stim	s637	False	1
476.728	1.5	475.977	n/a	-1.0	2.454	columbia_card_task_fmri	n/a	n/a	-1.0	n/a	n/a	n/a	n/a	n/a	n/a	n/a	n/a	ITI	poldrack-single-stim	s637	False	0
478.437	1.292	479.729	0.8447530159434917	draw_card	1.292	columbia_card_task_fmri	16.0	0.8125	89.0	-75.0	0.1875	16.0	1.0	3.0	2.86060930128518	1.292	n/a	stim	poldrack-single-stim	s637	False	1
479.734	1.648	481.382	-0.2927469840565075	draw_card	1.648	columbia_card_task_fmri	16.0	0.8	89.0	-75.0	0.2	16.0	2.0	3.0	3.74094560108437	1.648	n/a	stim	poldrack-single-stim	s637	False	1
481.385	0.738	482.123	-1.5927469840565065	draw_card	0.738	columbia_card_task_fmri	16.0	0.7857142857142857	89.0	-75.0	0.2142857142857142	16.0	3.0	3.0	4.679347890939823	0.738	n/a	stim	poldrack-single-stim	s637	False	1
482.128	1.258	483.386	-3.092746984056512	draw_card	1.258	columbia_card_task_fmri	16.0	0.7692307692307692	89.0	-75.0	0.2307692307692307	16.0	4.0	3.0	5.679000511257051	1.258	n/a	stim	poldrack-single-stim	s637	False	1
483.391	2.663	486.054	-4.842746984056508	end_round	2.663	columbia_card_task_fmri	16.0	0.75	71.0	-75.0	0.25	16.0	5.0	3.0	6.741299239324306	2.663	4.0	stim	poldrack-single-stim	s637	False	1
486.809	1.5	486.058	n/a	-1.0	2.318	columbia_card_task_fmri	n/a	n/a	-1.0	n/a	n/a	n/a	n/a	n/a	n/a	n/a	n/a	ITI	poldrack-single-stim	s637	False	0
488.383	0.654	489.037	5.107253015943493	draw_card	0.654	columbia_card_task_fmri	16.0	0.8666666666666667	89.0	-80.0	0.1333333333333333	15.0	1.0	2.0	-0.0195760316925657	0.654	n/a	stim	poldrack-single-stim	s637	False	1
489.042	0.565	489.607	4.19296730165778	draw_card	0.565	columbia_card_task_fmri	16.0	0.8571428571428572	89.0	-80.0	0.1428571428571428	15.0	2.0	2.0	0.9381136871649858	0.565	n/a	stim	poldrack-single-stim	s637	False	1
489.612	1.879	491.491	3.1380222467127217	draw_card	1.879	columbia_card_task_fmri	16.0	0.8461538461538461	89.0	-80.0	0.1538461538461538	15.0	3.0	2.0	1.9803999112798325	1.879	n/a	stim	poldrack-single-stim	s637	False	1
491.495	1.062	492.557	1.9072530159434933	draw_card	1.062	columbia_card_task_fmri	16.0	0.8333333333333334	89.0	-80.0	0.1666666666666666	15.0	4.0	2.0	3.118901398452003	1.062	n/a	stim	poldrack-single-stim	s637	False	1
492.562	2.71	495.272	0.4527075613980349	draw_card	2.71	columbia_card_task_fmri	16.0	0.8181818181818181	89.0	-80.0	0.1818181818181818	15.0	5.0	2.0	4.366783966548603	2.71	n/a	stim	poldrack-single-stim	s637	False	1
495.277	1.809	497.086	-1.2927469840565076	end_round	1.809	columbia_card_task_fmri	16.0	0.8	71.0	-80.0	0.2	15.0	6.0	2.0	5.738348214807083	1.809	5.0	stim	poldrack-single-stim	s637	False	1
497.842	1.5	497.091	n/a	-1.0	2.318	columbia_card_task_fmri	n/a	n/a	-1.0	n/a	n/a	n/a	n/a	n/a	n/a	n/a	n/a	ITI	poldrack-single-stim	s637	False	0
499.417	1.526	500.943	5.97391968261016	draw_card	1.526	columbia_card_task_fmri	17.0	0.8666666666666667	89.0	-80.0	0.1333333333333333	15.0	1.0	2.0	0.3197854782743619	1.526	n/a	stim	poldrack-single-stim	s637	False	1
500.948	0.147	501.095	5.050110158800638	draw_card	0.147	columbia_card_task_fmri	17.0	0.8571428571428572	89.0	-80.0	0.1428571428571428	15.0	2.0	2.0	1.2874839558271844	0.147	n/a	stim	poldrack-single-stim	s637	False	1
501.1	0.709	501.809	3.984176092866568	draw_card	0.709	columbia_card_task_fmri	17.0	0.8461538461538461	89.0	-80.0	0.1538461538461538	15.0	3.0	2.0	2.3406609920164243	0.709	3.0	stim	poldrack-single-stim	s637	False	0
502.566	1.5	501.815	n/a	-1.0	2.59	columbia_card_task_fmri	n/a	n/a	-1.0	n/a	n/a	n/a	n/a	n/a	n/a	n/a	n/a	ITI	poldrack-single-stim	s637	False	0
504.41	0.963	505.373	1.907253015943492	draw_card	0.963	columbia_card_task_fmri	1.0	0.9375	89.0	-15.0	0.0625	16.0	1.0	1.0	-28.391857071859192	0.963	n/a	stim	poldrack-single-stim	s637	False	1
505.379	0.168	505.547	1.840586349276825	draw_card	0.168	columbia_card_task_fmri	1.0	0.9333333333333332	89.0	-15.0	0.0666666666666666	16.0	2.0	1.0	-28.285583375490447	0.168	n/a	stim	poldrack-single-stim	s637	False	1
505.553	1.06	506.613	1.764395873086349	draw_card	1.06	columbia_card_task_fmri	1.0	0.9285714285714286	89.0	-15.0	0.0714285714285714	16.0	3.0	1.0	-28.16837002816458	1.06	n/a	stim	poldrack-single-stim	s637	False	1
506.617	0.692	507.309	1.6764837851742609	draw_card	0.692	columbia_card_task_fmri	1.0	0.9230769230769232	89.0	-15.0	0.0769230769230769	16.0	4.0	1.0	-28.038320522593374	0.692	n/a	stim	poldrack-single-stim	s637	False	1
507.314	1.383	508.697	1.5739196826101582	draw_card	1.383	columbia_card_task_fmri	1.0	0.9166666666666666	89.0	-15.0	0.0833333333333333	16.0	5.0	1.0	-27.89305863711313	1.383	n/a	stim	poldrack-single-stim	s637	False	1
508.702	2.15	510.852	1.4527075613980371	draw_card	2.15	columbia_card_task_fmri	1.0	0.9090909090909092	89.0	-15.0	0.0909090909090909	16.0	6.0	1.0	-27.72956583773656	2.15	6.0	stim	poldrack-single-stim	s637	False	0
511.61	1.5	510.859	n/a	-1.0	2.726	columbia_card_task_fmri	n/a	n/a	-1.0	n/a	n/a	n/a	n/a	n/a	n/a	n/a	n/a	ITI	poldrack-single-stim	s637	False	0
513.591	0.515	514.106	5.032253015943492	draw_card	0.515	columbia_card_task_fmri	10.0	0.9375	89.0	-100.0	0.0625	16.0	1.0	1.0	-6.014006779589312	0.515	n/a	stim	poldrack-single-stim	s637	False	1
514.112	0.151	514.263	4.573919682610159	draw_card	0.151	columbia_card_task_fmri	10.0	0.9333333333333332	89.0	-100.0	0.0666666666666666	16.0	2.0	1.0	-5.203960509427027	0.151	n/a	stim	poldrack-single-stim	s637	False	1
514.269	0.886	515.155	4.050110158800636	draw_card	0.886	columbia_card_task_fmri	10.0	0.9285714285714286	89.0	-100.0	0.0714285714285714	16.0	3.0	1.0	-4.315526254654227	0.886	n/a	stim	poldrack-single-stim	s637	False	1
515.159	0.638	515.797	3.445714554405031	draw_card	0.638	columbia_card_task_fmri	10.0	0.9230769230769232	89.0	-100.0	0.0769230769230769	16.0	4.0	1.0	-3.335373167437538	0.638	n/a	stim	poldrack-single-stim	s637	False	1
515.803	0.151	515.954	2.7405863492768257	draw_card	0.151	columbia_card_task_fmri	10.0	0.9166666666666666	89.0	-100.0	0.0833333333333333	16.0	5.0	1.0	-2.2468277415469657	0.151	n/a	stim	poldrack-single-stim	s637	False	1
515.959	2.996	518.955	1.90725301594349	draw_card	2.996	columbia_card_task_fmri	10.0	0.9090909090909092	89.0	-100.0	0.0909090909090909	16.0	6.0	1.0	-1.0287472563568762	2.996	6.0	stim	poldrack-single-stim	s637	False	0
519.71	1.5	518.959	n/a	-1.0	2.522	columbia_card_task_fmri	n/a	n/a	-1.0	n/a	n/a	n/a	n/a	n/a	n/a	n/a	n/a	ITI	poldrack-single-stim	s637	False	0
521.487	0.825	522.312	5.657253015943492	draw_card	0.825	columbia_card_task_fmri	15.0	0.875	89.0	-75.0	0.125	16.0	1.0	2.0	-2.8832415506242555	0.825	n/a	stim	poldrack-single-stim	s637	False	1
522.318	0.342	522.66	4.907253015943492	draw_card	0.342	columbia_card_task_fmri	15.0	0.8666666666666667	89.0	-75.0	0.1333333333333333	16.0	2.0	2.0	-2.055478375574424	0.342	n/a	stim	poldrack-single-stim	s637	False	1
522.666	0.426	523.092	4.050110158800636	draw_card	0.426	columbia_card_task_fmri	15.0	0.8571428571428572	89.0	-75.0	0.1428571428571428	16.0	3.0	2.0	-1.1578487478579191	0.426	3.0	stim	poldrack-single-stim	s637	False	0
523.849	1.5	523.098	n/a	-1.0	3.134	columbia_card_task_fmri	n/a	n/a	-1.0	n/a	n/a	n/a	n/a	n/a	n/a	n/a	n/a	ITI	poldrack-single-stim	s637	False	0
526.24	1.763	528.003	5.907253015943492	draw_card	1.763	columbia_card_task_fmri	16.0	0.875	89.0	-80.0	0.125	16.0	1.0	2.0	-0.9027361973695348	1.763	n/a	stim	poldrack-single-stim	s637	False	1
528.009	1.233	529.242	5.107253015943493	draw_card	1.233	columbia_card_task_fmri	16.0	0.8666666666666667	89.0	-80.0	0.1333333333333333	16.0	2.0	2.0	-0.0195760316925657	1.233	n/a	stim	poldrack-single-stim	s637	False	1
529.248	0.496	529.744	4.19296730165778	draw_card	0.496	columbia_card_task_fmri	16.0	0.8571428571428572	89.0	-80.0	0.1428571428571428	16.0	3.0	2.0	0.9381136871649858	0.496	n/a	stim	poldrack-single-stim	s637	False	1
529.749	0.123	529.872	3.1380222467127217	draw_card	0.123	columbia_card_task_fmri	16.0	0.8461538461538461	89.0	-80.0	0.1538461538461538	16.0	4.0	2.0	1.9803999112798325	0.123	n/a	stim	poldrack-single-stim	s637	False	1
529.879	1.026	530.905	1.9072530159434933	draw_card	1.026	columbia_card_task_fmri	16.0	0.8333333333333334	89.0	-80.0	0.1666666666666666	16.0	5.0	2.0	3.118901398452003	1.026	5.0	stim	poldrack-single-stim	s637	False	0
531.661	1.5	530.91	n/a	-1.0	2.386	columbia_card_task_fmri	n/a	n/a	-1.0	n/a	n/a	n/a	n/a	n/a	n/a	n/a	n/a	ITI	poldrack-single-stim	s637	False	0
533.301	0.607	533.908	3.094753015943492	draw_card	0.607	columbia_card_task_fmri	4.0	0.6875	89.0	-5.0	0.3125	16.0	1.0	5.0	-28.122053998166017	0.607	n/a	stim	poldrack-single-stim	s637	False	1
533.913	1.324	535.237	2.907253015943492	draw_card	1.324	columbia_card_task_fmri	4.0	0.6666666666666667	89.0	-5.0	0.3333333333333333	16.0	2.0	5.0	-28.057362491873043	1.324	n/a	stim	poldrack-single-stim	s637	False	1
535.242	0.188	535.43	2.6929673016577773	draw_card	0.188	columbia_card_task_fmri	4.0	0.6428571428571428	89.0	-5.0	0.3571428571428571	16.0	3.0	5.0	-27.99363449015128	0.188	3.0	stim	poldrack-single-stim	s637	False	0
536.185	1.5	535.434	n/a	-1.0	2.386	columbia_card_task_fmri	n/a	n/a	-1.0	n/a	n/a	n/a	n/a	n/a	n/a	n/a	n/a	ITI	poldrack-single-stim	s637	False	0
537.825	2.18	540.005	0.2405863492768274	draw_card	2.18	columbia_card_task_fmri	14.0	0.8333333333333334	89.0	-80.0	0.1666666666666666	6.0	1.0	1.0	2.3746246994034834	2.18	n/a	stim	poldrack-single-stim	s637	False	1
540.011	0.812	540.823	-2.892746984056507	draw_card	0.812	columbia_card_task_fmri	14.0	0.8	89.0	-80.0	0.2	6.0	2.0	1.0	4.939354075289216	0.812	n/a	stim	poldrack-single-stim	s637	False	1
540.828	2.294	543.122	-7.592746984056508	end_round	2.294	columbia_card_task_fmri	14.0	0.75	71.0	-80.0	0.25	6.0	3.0	1.0	8.0388667273766	2.294	2.0	stim	poldrack-single-stim	s637	False	1
543.879	1.5	543.128	n/a	-1.0	2.318	columbia_card_task_fmri	n/a	n/a	-1.0	n/a	n/a	n/a	n/a	n/a	n/a	n/a	n/a	ITI	poldrack-single-stim	s637	False	0
545.452	1.118	546.57	1.907253015943492	draw_card	1.118	columbia_card_task_fmri	15.0	0.8333333333333334	89.0	-75.0	0.1666666666666666	6.0	1.0	1.0	0.8862148712929638	1.118	n/a	stim	poldrack-single-stim	s637	False	1
546.576	2.958	549.534	-1.0927469840565085	draw_card	2.958	columbia_card_task_fmri	15.0	0.8	89.0	-75.0	0.2	6.0	2.0	1.0	3.341499639216636	2.958	n/a	stim	poldrack-single-stim	s637	False	1
549.54	2.157	551.697	-5.592746984056508	draw_card	2.157	columbia_card_task_fmri	15.0	0.75	89.0	-75.0	0.25	6.0	3.0	1.0	6.308798491878591	2.157	n/a	stim	poldrack-single-stim	s637	False	1
551.702	1.184	552.886	-13.092746984056507	end_round	1.184	columbia_card_task_fmri	15.0	0.6666666666666667	71.0	-75.0	0.3333333333333333	6.0	4.0	1.0	9.760267550693882	1.184	3.0	stim	poldrack-single-stim	s637	False	1
553.643	1.5	552.892	n/a	-1.0	2.318	columbia_card_task_fmri	n/a	n/a	-1.0	n/a	n/a	n/a	n/a	n/a	n/a	n/a	n/a	ITI	poldrack-single-stim	s637	False	0
555.218	0.821	556.039	3.57391968261016	draw_card	0.821	columbia_card_task_fmri	16.0	0.8333333333333334	89.0	-70.0	0.1666666666666666	6.0	1.0	1.0	-0.6019813452271734	0.821	1.0	stim	poldrack-single-stim	s637	False	0
556.795	1.5	556.044	n/a	-1.0	2.862	columbia_card_task_fmri	n/a	n/a	-1.0	n/a	n/a	n/a	n/a	n/a	n/a	n/a	n/a	ITI	poldrack-single-stim	s637	False	0
558.914	1.08	559.994	4.157253015943492	draw_card	1.08	columbia_card_task_fmri	23.0	0.75	89.0	-60.0	0.25	8.0	1.0	2.0	3.281637987201975	1.08	n/a	stim	poldrack-single-stim	s637	False	1
560.0	1.155	561.155	1.19296730165778	draw_card	1.155	columbia_card_task_fmri	23.0	0.7142857142857143	89.0	-60.0	0.2857142857142857	8.0	2.0	2.0	4.835066499146386	1.155	n/a	stim	poldrack-single-stim	s637	False	1
561.161	3.123	564.284	-2.759413650723173	end_round	3.123	columbia_card_task_fmri	23.0	0.6666666666666667	71.0	-60.0	0.3333333333333333	8.0	3.0	2.0	6.464045477231764	3.123	2.0	stim	poldrack-single-stim	s637	False	1
565.042	1.5	564.291	n/a	-1.0	2.726	columbia_card_task_fmri	n/a	n/a	-1.0	n/a	n/a	n/a	n/a	n/a	n/a	n/a	n/a	ITI	poldrack-single-stim	s637	False	0
567.024	1.009	568.033	4.657253015943492	draw_card	1.009	columbia_card_task_fmri	27.0	0.75	89.0	-70.0	0.25	8.0	1.0	2.0	9.336525036490528	1.009	n/a	stim	poldrack-single-stim	s637	False	1
568.039	1.603	569.642	1.1929673016577764	draw_card	1.603	columbia_card_task_fmri	27.0	0.7142857142857143	89.0	-70.0	0.2857142857142857	8.0	2.0	2.0	11.15263247165165	1.603	n/a	stim	poldrack-single-stim	s637	False	1
569.649	0.17	569.819	-3.426080317389837	draw_card	0.17	columbia_card_task_fmri	27.0	0.6666666666666667	89.0	-70.0	0.3333333333333333	8.0	3.0	2.0	13.057009859004369	0.17	n/a	stim	poldrack-single-stim	s637	False	1
569.825	1.236	571.061	-9.892746984056508	end_round	1.236	columbia_card_task_fmri	27.0	0.6	71.0	-70.0	0.4	8.0	4.0	2.0	14.849372709519365	1.236	3.0	stim	poldrack-single-stim	s637	False	1
571.818	1.5	571.067	n/a	-1.0	2.25	columbia_card_task_fmri	n/a	n/a	-1.0	n/a	n/a	n/a	n/a	n/a	n/a	n/a	n/a	ITI	poldrack-single-stim	s637	False	0
573.323	0.829	574.152	-0.0927469840565065	draw_card	0.829	columbia_card_task_fmri	16.0	0.7777777777777778	89.0	-65.0	0.2222222222222222	9.0	1.0	2.0	1.0198965965893905	0.829	n/a	stim	poldrack-single-stim	s637	False	1
574.158	1.373	575.531	-2.3427469840565083	draw_card	1.373	columbia_card_task_fmri	16.0	0.75	89.0	-65.0	0.25	9.0	2.0	2.0	2.4168594327978923	1.373	n/a	stim	poldrack-single-stim	s637	False	1
575.536	1.314	576.85	-5.235604126913649	draw_card	1.314	columbia_card_task_fmri	16.0	0.7142857142857143	89.0	-65.0	0.2857142857142857	9.0	3.0	2.0	3.9327539291086353	1.314	n/a	stim	poldrack-single-stim	s637	False	1
576.857	2.531	579.388	-9.092746984056504	end_round	2.531	columbia_card_task_fmri	16.0	0.6666666666666667	71.0	-65.0	0.3333333333333333	9.0	4.0	2.0	5.522382126443091	2.531	3.0	stim	poldrack-single-stim	s637	False	1
580.145	1.5	579.394	n/a	-1.0	2.318	columbia_card_task_fmri	n/a	n/a	-1.0	n/a	n/a	n/a	n/a	n/a	n/a	n/a	n/a	ITI	poldrack-single-stim	s637	False	0
581.719	0.55	582.269	5.107253015943493	draw_card	0.55	columbia_card_task_fmri	13.0	0.9	89.0	-85.0	0.1	10.0	1.0	1.0	-3.2471881430908347	0.55	n/a	stim	poldrack-single-stim	s637	False	1
582.276	0.106	582.382	4.018364127054602	draw_card	0.106	columbia_card_task_fmri	13.0	0.8888888888888888	89.0	-85.0	0.1111111111111111	10.0	2.0	1.0	-1.851560005664492	0.106	n/a	stim	poldrack-single-stim	s637	False	1
582.388	1.607	583.995	2.657253015943492	draw_card	1.607	columbia_card_task_fmri	13.0	0.875	89.0	-85.0	0.125	10.0	3.0	1.0	-0.242464401749487	1.607	n/a	stim	poldrack-single-stim	s637	False	1
584.001	2.946	586.947	0.9072530159434936	draw_card	2.946	columbia_card_task_fmri	13.0	0.8571428571428572	89.0	-85.0	0.1428571428571428	10.0	4.0	1.0	1.6368655619580397	2.946	n/a	stim	poldrack-single-stim	s637	False	1
586.953	2.901	589.854	-1.4260803173898404	draw_card	2.901	columbia_card_task_fmri	13.0	0.8333333333333334	89.0	-85.0	0.1666666666666666	10.0	5.0	1.0	3.863222058524471	2.901	5.0	stim	poldrack-single-stim	s637	False	0
590.61	1.5	589.859	n/a	-1.0	2.454	columbia_card_task_fmri	n/a	n/a	-1.0	n/a	n/a	n/a	n/a	n/a	n/a	n/a	n/a	ITI	poldrack-single-stim	s637	False	0
592.321	0.523	592.844	0.1072530159434927	draw_card	0.523	columbia_card_task_fmri	14.0	0.8	89.0	-65.0	0.2	10.0	1.0	2.0	-1.0514825147784457	0.523	n/a	stim	poldrack-single-stim	s637	False	1
592.85	0.11	592.96	-1.648302539612062	draw_card	0.11	columbia_card_task_fmri	14.0	0.7777777777777778	89.0	-65.0	0.2222222222222222	10.0	2.0	2.0	0.1897811733216841	0.11	n/a	stim	poldrack-single-stim	s637	False	1
592.966	0.987	593.953	-3.842746984056508	draw_card	0.987	columbia_card_task_fmri	14.0	0.75	89.0	-65.0	0.25	10.0	3.0	2.0	1.5521438667934433	0.987	n/a	stim	poldrack-single-stim	s637	False	1
593.96	0.124	594.084	-6.664175555485078	draw_card	0.124	columbia_card_task_fmri	14.0	0.7142857142857143	89.0	-65.0	0.2857142857142857	10.0	4.0	2.0	3.0305017560838365	0.124	n/a	stim	poldrack-single-stim	s637	False	1
594.091	1.575	595.666	-10.42608031738984	end_round	1.575	columbia_card_task_fmri	14.0	0.6666666666666667	71.0	-65.0	0.3333333333333333	10.0	5.0	2.0	4.580776674233327	1.575	4.0	stim	poldrack-single-stim	s637	False	1
596.422	1.5	595.671	n/a	-1.0	2.522	columbia_card_task_fmri	n/a	n/a	-1.0	n/a	n/a	n/a	n/a	n/a	n/a	n/a	n/a	ITI	poldrack-single-stim	s637	False	0
598.2	0.438	598.638	1.5072530159434931	draw_card	0.438	columbia_card_task_fmri	17.0	0.8	89.0	-70.0	0.2	10.0	1.0	2.0	2.1432380053925684	0.438	n/a	stim	poldrack-single-stim	s637	False	1
598.645	0.122	598.767	-0.4260803173898404	draw_card	0.122	columbia_card_task_fmri	17.0	0.7777777777777778	89.0	-70.0	0.2222222222222222	10.0	2.0	2.0	3.5106183128582416	0.122	n/a	stim	poldrack-single-stim	s637	False	1
598.773	0.276	599.049	-2.8427469840565083	draw_card	0.276	columbia_card_task_fmri	17.0	0.75	89.0	-70.0	0.25	10.0	3.0	2.0	5.011366731998464	0.276	3.0	stim	poldrack-single-stim	s637	False	0
599.805	1.5	599.054	n/a	-1.0	2.318	columbia_card_task_fmri	n/a	n/a	-1.0	n/a	n/a	n/a	n/a	n/a	n/a	n/a	n/a	ITI	poldrack-single-stim	s637	False	0
601.378	0.605	601.983	0.2405863492768256	draw_card	0.605	columbia_card_task_fmri	13.0	0.8333333333333334	89.0	-75.0	0.1666666666666666	12.0	1.0	2.0	0.1420882470712285	0.605	n/a	stim	poldrack-single-stim	s637	False	1
601.987	0.145	602.132	-1.09274698405651	draw_card	0.145	columbia_card_task_fmri	13.0	0.8181818181818181	89.0	-75.0	0.1818181818181818	12.0	2.0	2.0	1.2856830009305256	0.145	n/a	stim	poldrack-single-stim	s637	False	1
602.137	3.711	605.848	-2.692746984056508	draw_card	3.711	columbia_card_task_fmri	13.0	0.8	89.0	-75.0	0.2	12.0	3.0	2.0	2.542645409376391	3.711	n/a	stim	poldrack-single-stim	s637	False	1
605.852	1.586	607.438	-4.648302539612062	draw_card	1.586	columbia_card_task_fmri	13.0	0.7777777777777778	89.0	-75.0	0.2222222222222222	12.0	4.0	2.0	3.925787767792613	1.586	4.0	stim	poldrack-single-stim	s637	False	0
608.194	1.5	607.443	n/a	-1.0	2.522	columbia_card_task_fmri	n/a	n/a	-1.0	n/a	n/a	n/a	n/a	n/a	n/a	n/a	n/a	ITI	poldrack-single-stim	s637	False	0
609.972	0.438	610.41	1.9072530159434933	draw_card	0.438	columbia_card_task_fmri	14.0	0.8333333333333334	89.0	-70.0	0.1666666666666666	12.0	1.0	2.0	-1.3459898464504398	0.438	n/a	stim	poldrack-single-stim	s637	False	1
610.416	0.55	610.966	0.6345257432162166	draw_card	0.55	columbia_card_task_fmri	14.0	0.8181818181818181	89.0	-70.0	0.1818181818181818	12.0	2.0	2.0	-0.2545499814074006	0.55	n/a	stim	poldrack-single-stim	s637	False	1
610.972	3.445	614.417	-0.8927469840565072	draw_card	3.445	columbia_card_task_fmri	14.0	0.8	89.0	-70.0	0.2	12.0	3.0	2.0	0.9451002514556776	3.445	n/a	stim	poldrack-single-stim	s637	False	1
614.423	1.535	615.958	-2.7594136507231743	end_round	1.535	columbia_card_task_fmri	14.0	0.7777777777777778	71.0	-70.0	0.2222222222222222	12.0	4.0	2.0	2.2651912360965127	1.535	3.0	stim	poldrack-single-stim	s637	False	1
616.715	1.5	615.964	n/a	-1.0	2.998	columbia_card_task_fmri	n/a	n/a	-1.0	n/a	n/a	n/a	n/a	n/a	n/a	n/a	n/a	ITI	poldrack-single-stim	s637	False	0
618.969	0.82	619.789	1.9072530159434933	draw_card	0.82	columbia_card_task_fmri	16.0	0.8333333333333334	89.0	-80.0	0.1666666666666666	12.0	1.0	2.0	3.118901398452003	0.82	n/a	stim	poldrack-single-stim	s637	False	1
619.796	1.386	621.182	0.4527075613980349	draw_card	1.386	columbia_card_task_fmri	16.0	0.8181818181818181	89.0	-80.0	0.1818181818181818	12.0	2.0	2.0	4.366783966548603	1.386	n/a	stim	poldrack-single-stim	s637	False	1
621.189	1.558	622.747	-1.2927469840565076	draw_card	1.558	columbia_card_task_fmri	16.0	0.8	89.0	-80.0	0.2	12.0	3.0	2.0	5.738348214807083	1.558	n/a	stim	poldrack-single-stim	s637	False	1
622.753	0.108	622.861	-3.426080317389842	draw_card	0.108	columbia_card_task_fmri	16.0	0.7777777777777778	89.0	-80.0	0.2222222222222222	12.0	4.0	2.0	7.24757032007372	0.108	4.0	stim	poldrack-single-stim	s637	False	0
623.618	1.5	622.867	n/a	-1.0	2.318	columbia_card_task_fmri	n/a	n/a	-1.0	n/a	n/a	n/a	n/a	n/a	n/a	n/a	n/a	ITI	poldrack-single-stim	s637	False	0
625.192	0.613	625.805	1.7072530159434924	draw_card	0.613	columbia_card_task_fmri	16.0	0.8	89.0	-65.0	0.2	15.0	1.0	3.0	-0.2528999032693164	0.613	n/a	stim	poldrack-single-stim	s637	False	1
625.812	1.097	626.909	0.5501101588006359	draw_card	1.097	columbia_card_task_fmri	16.0	0.7857142857142857	89.0	-65.0	0.2142857142857142	15.0	2.0	3.0	0.5820891656514959	1.097	2.0	stim	poldrack-single-stim	s637	False	0
627.664	1.5	626.913	n/a	-1.0	2.25	columbia_card_task_fmri	n/a	n/a	-1.0	n/a	n/a	n/a	n/a	n/a	n/a	n/a	n/a	ITI	poldrack-single-stim	s637	False	0
629.17	1.778	630.948	0.0322530159434917	draw_card	1.778	columbia_card_task_fmri	15.0	0.8125	89.0	-75.0	0.1875	16.0	1.0	3.0	2.4708646565922976	1.778	n/a	stim	poldrack-single-stim	s637	False	1
630.955	0.122	631.077	-1.0927469840565085	draw_card	0.122	columbia_card_task_fmri	15.0	0.8	89.0	-75.0	0.2	16.0	2.0	3.0	3.341499639216636	0.122	n/a	stim	poldrack-single-stim	s637	False	1
631.084	1.755	632.839	-2.378461269770793	draw_card	1.755	columbia_card_task_fmri	15.0	0.7857142857142857	89.0	-75.0	0.2142857142857142	16.0	3.0	3.0	4.269562139057335	1.755	n/a	stim	poldrack-single-stim	s637	False	1
632.845	2.149	634.994	-3.861977753287282	draw_card	2.149	columbia_card_task_fmri	15.0	0.7692307692307692	89.0	-75.0	0.2307692307692307	16.0	4.0	3.0	5.258201570744276	2.149	n/a	stim	poldrack-single-stim	s637	False	1
635.001	0.146	635.147	-5.592746984056508	draw_card	0.146	columbia_card_task_fmri	15.0	0.75	89.0	-75.0	0.25	16.0	5.0	3.0	6.308798491878591	0.146	n/a	stim	poldrack-single-stim	s637	False	1
635.152	1.755	636.907	-7.6382015295110515	end_round	1.755	columbia_card_task_fmri	15.0	0.7272727272727273	71.0	-75.0	0.2727272727272727	16.0	6.0	3.0	7.41892291445194	1.755	5.0	stim	poldrack-single-stim	s637	False	1
637.664	1.5	636.913	n/a	-1.0	2.454	columbia_card_task_fmri	n/a	n/a	-1.0	n/a	n/a	n/a	n/a	n/a	n/a	n/a	n/a	ITI	poldrack-single-stim	s637	False	0
639.374	0.941	640.315	0.5947530159434917	draw_card	0.941	columbia_card_task_fmri	14.0	0.6875	89.0	-35.0	0.3125	16.0	1.0	5.0	-9.916939249597146	0.941	1.0	stim	poldrack-single-stim	s637	False	0
641.074	1.5	640.323	n/a	-1.0	2.318	columbia_card_task_fmri	n/a	n/a	-1.0	n/a	n/a	n/a	n/a	n/a	n/a	n/a	n/a	ITI	poldrack-single-stim	s637	False	0
642.648	0.805	643.453	5.773919682610159	draw_card	0.805	columbia_card_task_fmri	16.0	0.8666666666666667	89.0	-75.0	0.1333333333333333	15.0	1.0	2.0	-1.716195155962431	0.805	1.0	stim	poldrack-single-stim	s637	False	0
644.212	1.5	643.461	n/a	-1.0	2.318	columbia_card_task_fmri	n/a	n/a	-1.0	n/a	n/a	n/a	n/a	n/a	n/a	n/a	n/a	ITI	poldrack-single-stim	s637	False	0
645.787	0.576	646.363	6.440586349276825	draw_card	0.576	columbia_card_task_fmri	16.0	0.8666666666666667	89.0	-70.0	0.1333333333333333	15.0	1.0	2.0	-3.412460228071957	0.576	n/a	stim	poldrack-single-stim	s637	False	1
646.37	1.709	648.079	5.621538730229207	draw_card	1.709	columbia_card_task_fmri	16.0	0.8571428571428572	89.0	-70.0	0.1428571428571428	15.0	2.0	2.0	-2.554878748802168	1.709	n/a	stim	poldrack-single-stim	s637	False	1
648.085	2.012	650.097	4.67648378517426	draw_card	2.012	columbia_card_task_fmri	16.0	0.8461538461538461	89.0	-70.0	0.1538461538461538	15.0	3.0	2.0	-1.6215218400791898	2.012	3.0	stim	poldrack-single-stim	s637	False	0
650.854	1.5	650.103	n/a	-1.0	2.59	columbia_card_task_fmri	n/a	n/a	-1.0	n/a	n/a	n/a	n/a	n/a	n/a	n/a	n/a	ITI	poldrack-single-stim	s637	False	0
652.701	0.604	653.305	3.782253015943492	draw_card	0.604	columbia_card_task_fmri	8.0	0.9375	89.0	-90.0	0.0625	16.0	1.0	1.0	-8.910416220458831	0.604	n/a	stim	poldrack-single-stim	s637	False	1
653.312	0.693	654.005	3.3739196826101585	draw_card	0.693	columbia_card_task_fmri	8.0	0.9333333333333332	89.0	-90.0	0.0666666666666666	16.0	2.0	1.0	-8.1892027874901	0.693	n/a	stim	poldrack-single-stim	s637	False	1
654.011	1.486	655.497	2.9072530159434926	draw_card	1.486	columbia_card_task_fmri	8.0	0.9285714285714286	89.0	-90.0	0.0714285714285714	16.0	3.0	1.0	-7.398167277789202	1.486	n/a	stim	poldrack-single-stim	s637	False	1
655.503	1.316	656.819	2.3687914774819534	draw_card	1.316	columbia_card_task_fmri	8.0	0.9230769230769232	89.0	-90.0	0.0769230769230769	16.0	4.0	1.0	-6.525434476411085	1.316	4.0	stim	poldrack-single-stim	s637	False	0
657.576	1.5	656.825	n/a	-1.0	2.25	columbia_card_task_fmri	n/a	n/a	-1.0	n/a	n/a	n/a	n/a	n/a	n/a	n/a	n/a	ITI	poldrack-single-stim	s637	False	0
659.082	0.505	659.587	5.344753015943492	draw_card	0.505	columbia_card_task_fmri	10.0	0.9375	89.0	-95.0	0.0625	16.0	1.0	1.0	-7.221074401536359	0.505	n/a	stim	poldrack-single-stim	s637	False	1
659.593	0.906	660.499	4.907253015943493	draw_card	0.906	columbia_card_task_fmri	10.0	0.9333333333333332	89.0	-95.0	0.0666666666666666	16.0	2.0	1.0	-6.448035107600926	0.906	n/a	stim	poldrack-single-stim	s637	False	1
660.505	0.805	661.31	4.407253015943493	draw_card	0.805	columbia_card_task_fmri	10.0	0.9285714285714286	89.0	-95.0	0.0714285714285714	16.0	3.0	1.0	-5.600176741035405	0.805	n/a	stim	poldrack-single-stim	s637	False	1
661.316	2.744	664.06	3.830329939020415	draw_card	2.744	columbia_card_task_fmri	10.0	0.9230769230769232	89.0	-95.0	0.0769230769230769	16.0	4.0	1.0	-4.664774947623332	2.744	n/a	stim	poldrack-single-stim	s637	False	1
664.066	1.142	665.208	3.157253015943492	draw_card	1.142	columbia_card_task_fmri	10.0	0.9166666666666666	89.0	-95.0	0.0833333333333333	16.0	5.0	1.0	-3.625914738457237	1.142	n/a	stim	poldrack-single-stim	s637	False	1
665.215	1.841	667.056	2.361798470488945	end_round	1.841	columbia_card_task_fmri	10.0	0.9090909090909092	71.0	-95.0	0.0909090909090909	16.0	6.0	1.0	-2.46341515736065	1.841	5.0	stim	poldrack-single-stim	s637	False	1
667.814	1.5	667.063	n/a	-1.0	2.25	columbia_card_task_fmri	n/a	n/a	-1.0	n/a	n/a	n/a	n/a	n/a	n/a	n/a	n/a	ITI	poldrack-single-stim	s637	False	0
