duration	onset	block_duration	movement_onset	planning	condition	exp_stage	experiment_exp_id	key_press	problem_id	response_time	trial_id	trial_type	worker_id	junk
4.153	3.009	4.153	7.162	1	UA_with_intermediate	practice	ward_and_allport	71	0.0	4.153	to_hand	poldrack-single-stim	s637	False
0.1	7.164	2.673	9.837	0	UA_with_intermediate	practice	ward_and_allport	82	0.0	2.673	to_board	poldrack-single-stim	s637	False
0.1	9.84	1.163	11.003	0	UA_with_intermediate	practice	ward_and_allport	71	0.0	1.163	to_hand	poldrack-single-stim	s637	False
0.1	11.003	0.644	11.647	0	UA_with_intermediate	practice	ward_and_allport	89	0.0	0.644	to_board	poldrack-single-stim	s637	False
0.1	11.65	0.225	11.875	0	UA_with_intermediate	practice	ward_and_allport	89	0.0	0.225	to_hand	poldrack-single-stim	s637	False
0.1	11.876	1.056	12.932	0	UA_with_intermediate	practice	ward_and_allport	89	0.0	1.056	to_board	poldrack-single-stim	s637	False
0.1	12.937	0.19	13.127	0	UA_with_intermediate	practice	ward_and_allport	89	0.0	0.19	to_hand	poldrack-single-stim	s637	False
0.1	13.128	1.729	14.857	0	UA_with_intermediate	practice	ward_and_allport	89	0.0	1.729	to_board	poldrack-single-stim	s637	False
0.1	14.859	1.018	15.877	0	UA_with_intermediate	practice	ward_and_allport	82	0.0	1.018	to_hand	poldrack-single-stim	s637	False
0.1	15.878	0.564	16.442	0	UA_with_intermediate	practice	ward_and_allport	89	0.0	0.564	to_board	poldrack-single-stim	s637	False
1.0	16.446	2.5	16.445	0	UA_with_intermediate	practice	ward_and_allport	-1	0.0	n/a	feedback	poldrack-single-stim	s637	False
4.763	18.951	4.763	23.714	1	UA_with_intermediate	practice	ward_and_allport	89	1.0	4.763	to_hand	poldrack-single-stim	s637	False
0.1	23.716	1.479	25.195	0	UA_with_intermediate	practice	ward_and_allport	82	1.0	1.479	to_board	poldrack-single-stim	s637	False
0.1	25.196	0.961	26.157	0	UA_with_intermediate	practice	ward_and_allport	71	1.0	0.961	to_hand	poldrack-single-stim	s637	False
0.1	26.158	0.573	26.731	0	UA_with_intermediate	practice	ward_and_allport	89	1.0	0.573	to_board	poldrack-single-stim	s637	False
0.1	26.734	0.661	27.395	0	UA_with_intermediate	practice	ward_and_allport	82	1.0	0.661	to_hand	poldrack-single-stim	s637	False
0.1	27.397	0.425	27.822	0	UA_with_intermediate	practice	ward_and_allport	89	1.0	0.425	to_board	poldrack-single-stim	s637	False
1.0	27.825	2.1	27.824	0	UA_with_intermediate	practice	ward_and_allport	-1	1.0	n/a	feedback	poldrack-single-stim	s637	False
4.614	29.928	4.614	34.542	1	UA_without_intermediate	practice	ward_and_allport	71	2.0	4.614	to_hand	poldrack-single-stim	s637	False
0.1	34.543	1.324	35.867	0	UA_without_intermediate	practice	ward_and_allport	82	2.0	1.324	to_board	poldrack-single-stim	s637	False
0.1	35.87	2.254	38.124	0	UA_without_intermediate	practice	ward_and_allport	71	2.0	2.254	to_hand	poldrack-single-stim	s637	False
0.1	38.125	3.236	41.361	0	UA_without_intermediate	practice	ward_and_allport	71	2.0	3.236	to_board	poldrack-single-stim	s637	False
0.1	41.363	1.917	43.28	0	UA_without_intermediate	practice	ward_and_allport	82	2.0	1.917	to_hand	poldrack-single-stim	s637	False
0.1	43.281	0.877	44.158	0	UA_without_intermediate	practice	ward_and_allport	71	2.0	0.877	to_board	poldrack-single-stim	s637	False
0.1	44.16	1.136	45.296	0	UA_without_intermediate	practice	ward_and_allport	82	2.0	1.136	to_hand	poldrack-single-stim	s637	False
0.1	45.297	0.62	45.917	0	UA_without_intermediate	practice	ward_and_allport	89	2.0	0.62	to_board	poldrack-single-stim	s637	False
0.1	45.919	0.723	46.642	0	UA_without_intermediate	practice	ward_and_allport	71	2.0	0.723	to_hand	poldrack-single-stim	s637	False
0.1	46.643	0.525	47.168	0	UA_without_intermediate	practice	ward_and_allport	89	2.0	0.525	to_board	poldrack-single-stim	s637	False
0.1	47.171	1.494	48.665	0	UA_without_intermediate	practice	ward_and_allport	71	2.0	1.494	to_hand	poldrack-single-stim	s637	False
0.1	48.666	0.355	49.021	0	UA_without_intermediate	practice	ward_and_allport	89	2.0	0.355	to_board	poldrack-single-stim	s637	False
1.0	49.024	2.2	49.023	0	UA_without_intermediate	practice	ward_and_allport	-1	2.0	n/a	feedback	poldrack-single-stim	s637	False
3.255	51.227	3.255	54.482	1	UA_without_intermediate	practice	ward_and_allport	71	3.0	3.255	to_hand	poldrack-single-stim	s637	False
0.1	54.484	1.025	55.509	0	UA_without_intermediate	practice	ward_and_allport	89	3.0	1.025	to_board	poldrack-single-stim	s637	False
0.1	55.512	0.192	55.704	0	UA_without_intermediate	practice	ward_and_allport	89	3.0	0.192	to_hand	poldrack-single-stim	s637	False
0.1	55.705	2.145	57.85	0	UA_without_intermediate	practice	ward_and_allport	89	3.0	2.145	to_board	poldrack-single-stim	s637	False
0.1	57.853	1.067	58.92	0	UA_without_intermediate	practice	ward_and_allport	82	3.0	1.067	to_hand	poldrack-single-stim	s637	False
0.1	58.922	0.664	59.586	0	UA_without_intermediate	practice	ward_and_allport	89	3.0	0.664	to_board	poldrack-single-stim	s637	False
0.1	59.589	0.81	60.399	0	UA_without_intermediate	practice	ward_and_allport	71	3.0	0.81	to_hand	poldrack-single-stim	s637	False
0.1	60.4	0.461	60.861	0	UA_without_intermediate	practice	ward_and_allport	89	3.0	0.461	to_board	poldrack-single-stim	s637	False
1.0	60.865	2.0	60.864	0	UA_without_intermediate	practice	ward_and_allport	-1	3.0	n/a	feedback	poldrack-single-stim	s637	False
3.926	64.873	3.926	68.799	1	PA_without_intermediate	test	ward_and_allport	71	0.0	3.926	to_hand	poldrack-single-stim	s637	False
0.1	68.8	0.761	69.561	0	PA_without_intermediate	test	ward_and_allport	89	0.0	0.761	to_board	poldrack-single-stim	s637	False
0.1	69.564	0.705	70.269	0	PA_without_intermediate	test	ward_and_allport	71	0.0	0.705	to_hand	poldrack-single-stim	s637	False
0.1	70.27	0.438	70.708	0	PA_without_intermediate	test	ward_and_allport	89	0.0	0.438	to_board	poldrack-single-stim	s637	False
0.1	70.711	1.047	71.758	0	PA_without_intermediate	test	ward_and_allport	71	0.0	1.047	to_hand	poldrack-single-stim	s637	False
0.1	71.758	0.52	72.278	0	PA_without_intermediate	test	ward_and_allport	82	0.0	0.52	to_board	poldrack-single-stim	s637	False
1.0	72.283	3.088	72.282	0	PA_without_intermediate	test	ward_and_allport	-1	0.0	n/a	feedback	poldrack-single-stim	s637	False
2.591	75.374	2.591	77.965	1	PA_with_intermediate	test	ward_and_allport	71	1.0	2.591	to_hand	poldrack-single-stim	s637	False
0.1	77.967	1.208	79.175	0	PA_with_intermediate	test	ward_and_allport	89	1.0	1.208	to_board	poldrack-single-stim	s637	False
0.1	79.178	0.763	79.941	0	PA_with_intermediate	test	ward_and_allport	71	1.0	0.763	to_hand	poldrack-single-stim	s637	False
0.1	79.942	1.206	81.148	0	PA_with_intermediate	test	ward_and_allport	82	1.0	1.206	to_board	poldrack-single-stim	s637	False
0.1	81.152	0.508	81.66	0	PA_with_intermediate	test	ward_and_allport	89	1.0	0.508	to_hand	poldrack-single-stim	s637	False
0.1	81.662	0.172	81.834	0	PA_with_intermediate	test	ward_and_allport	89	1.0	0.172	to_board	poldrack-single-stim	s637	False
0.1	81.837	0.7	82.537	0	PA_with_intermediate	test	ward_and_allport	89	1.0	0.7	to_hand	poldrack-single-stim	s637	False
0.1	82.538	0.126	82.664	0	PA_with_intermediate	test	ward_and_allport	89	1.0	0.126	to_board	poldrack-single-stim	s637	False
0.1	82.668	0.486	83.154	0	PA_with_intermediate	test	ward_and_allport	89	1.0	0.486	to_hand	poldrack-single-stim	s637	False
0.1	83.156	0.509	83.665	0	PA_with_intermediate	test	ward_and_allport	71	1.0	0.509	to_board	poldrack-single-stim	s637	False
1.0	83.669	2.0	83.668	0	PA_with_intermediate	test	ward_and_allport	-1	1.0	n/a	feedback	poldrack-single-stim	s637	False
3.543	85.673	3.543	89.216	1	PA_without_intermediate	test	ward_and_allport	89	2.0	3.543	to_hand	poldrack-single-stim	s637	False
0.1	89.218	0.966	90.184	0	PA_without_intermediate	test	ward_and_allport	71	2.0	0.966	to_board	poldrack-single-stim	s637	False
0.1	90.188	1.131	91.319	0	PA_without_intermediate	test	ward_and_allport	89	2.0	1.131	to_hand	poldrack-single-stim	s637	False
0.1	91.32	0.278	91.598	0	PA_without_intermediate	test	ward_and_allport	89	2.0	0.278	to_board	poldrack-single-stim	s637	False
0.1	91.602	0.513	92.115	0	PA_without_intermediate	test	ward_and_allport	89	2.0	0.513	to_hand	poldrack-single-stim	s637	False
0.1	92.116	0.763	92.879	0	PA_without_intermediate	test	ward_and_allport	82	2.0	0.763	to_board	poldrack-single-stim	s637	False
0.1	92.883	0.697	93.58	0	PA_without_intermediate	test	ward_and_allport	89	2.0	0.697	to_hand	poldrack-single-stim	s637	False
0.1	93.581	0.919	94.5	0	PA_without_intermediate	test	ward_and_allport	71	2.0	0.919	to_board	poldrack-single-stim	s637	False
1.0	94.505	2.0	94.504	0	PA_without_intermediate	test	ward_and_allport	-1	2.0	n/a	feedback	poldrack-single-stim	s637	False
3.269	96.509	3.269	99.778	1	PA_without_intermediate	test	ward_and_allport	71	3.0	3.269	to_hand	poldrack-single-stim	s637	False
0.1	99.78	1.117	100.897	0	PA_without_intermediate	test	ward_and_allport	82	3.0	1.117	to_board	poldrack-single-stim	s637	False
0.1	100.9	0.807	101.707	0	PA_without_intermediate	test	ward_and_allport	71	3.0	0.807	to_hand	poldrack-single-stim	s637	False
0.1	101.708	0.688	102.396	0	PA_without_intermediate	test	ward_and_allport	82	3.0	0.688	to_board	poldrack-single-stim	s637	False
0.1	102.4	1.366	103.766	0	PA_without_intermediate	test	ward_and_allport	71	3.0	1.366	to_hand	poldrack-single-stim	s637	False
0.1	103.767	0.564	104.331	0	PA_without_intermediate	test	ward_and_allport	89	3.0	0.564	to_board	poldrack-single-stim	s637	False
1.0	104.335	2.0	104.334	0	PA_without_intermediate	test	ward_and_allport	-1	3.0	n/a	feedback	poldrack-single-stim	s637	False
3.979	106.34	3.979	110.319	1	PA_with_intermediate	test	ward_and_allport	89	4.0	3.979	to_hand	poldrack-single-stim	s637	False
0.1	110.32	0.124	110.444	0	PA_with_intermediate	test	ward_and_allport	89	4.0	0.124	to_board	poldrack-single-stim	s637	False
0.1	110.448	0.646	111.094	0	PA_with_intermediate	test	ward_and_allport	89	4.0	0.646	to_hand	poldrack-single-stim	s637	False
0.1	111.096	1.19	112.286	0	PA_with_intermediate	test	ward_and_allport	82	4.0	1.19	to_board	poldrack-single-stim	s637	False
0.1	112.29	1.161	113.451	0	PA_with_intermediate	test	ward_and_allport	89	4.0	1.161	to_hand	poldrack-single-stim	s637	False
0.1	113.453	0.904	114.357	0	PA_with_intermediate	test	ward_and_allport	71	4.0	0.904	to_board	poldrack-single-stim	s637	False
0.1	114.36	0.976	115.336	0	PA_with_intermediate	test	ward_and_allport	82	4.0	0.976	to_hand	poldrack-single-stim	s637	False
0.1	115.339	0.697	116.036	0	PA_with_intermediate	test	ward_and_allport	89	4.0	0.697	to_board	poldrack-single-stim	s637	False
1.0	116.04	2.544	116.039	0	PA_with_intermediate	test	ward_and_allport	-1	4.0	n/a	feedback	poldrack-single-stim	s637	False
2.714	118.589	2.714	121.303	1	PA_without_intermediate	test	ward_and_allport	82	5.0	2.714	to_hand	poldrack-single-stim	s637	False
0.1	121.303	0.904	122.207	0	PA_without_intermediate	test	ward_and_allport	89	5.0	0.904	to_board	poldrack-single-stim	s637	False
0.1	122.21	0.186	122.396	0	PA_without_intermediate	test	ward_and_allport	89	5.0	0.186	to_hand	poldrack-single-stim	s637	False
0.1	122.397	0.806	123.203	0	PA_without_intermediate	test	ward_and_allport	89	5.0	0.806	to_board	poldrack-single-stim	s637	False
0.1	123.207	1.468	124.675	0	PA_without_intermediate	test	ward_and_allport	82	5.0	1.468	to_hand	poldrack-single-stim	s637	False
0.1	124.676	0.811	125.487	0	PA_without_intermediate	test	ward_and_allport	89	5.0	0.811	to_board	poldrack-single-stim	s637	False
0.1	125.49	0.729	126.219	0	PA_without_intermediate	test	ward_and_allport	82	5.0	0.729	to_hand	poldrack-single-stim	s637	False
0.1	126.22	0.631	126.851	0	PA_without_intermediate	test	ward_and_allport	71	5.0	0.631	to_board	poldrack-single-stim	s637	False
1.0	126.856	2.272	126.855	0	PA_without_intermediate	test	ward_and_allport	-1	5.0	n/a	feedback	poldrack-single-stim	s637	False
2.934	129.132	2.934	132.066	1	PA_with_intermediate	test	ward_and_allport	82	6.0	2.934	to_hand	poldrack-single-stim	s637	False
0.1	132.068	1.826	133.894	0	PA_with_intermediate	test	ward_and_allport	71	6.0	1.826	to_board	poldrack-single-stim	s637	False
0.1	133.898	0.902	134.8	0	PA_with_intermediate	test	ward_and_allport	82	6.0	0.902	to_hand	poldrack-single-stim	s637	False
0.1	134.801	0.927	135.728	0	PA_with_intermediate	test	ward_and_allport	89	6.0	0.927	to_board	poldrack-single-stim	s637	False
0.1	135.732	0.992	136.724	0	PA_with_intermediate	test	ward_and_allport	71	6.0	0.992	to_hand	poldrack-single-stim	s637	False
0.1	136.725	0.685	137.41	0	PA_with_intermediate	test	ward_and_allport	89	6.0	0.685	to_board	poldrack-single-stim	s637	False
1.0	137.416	4.04	137.415	0	PA_with_intermediate	test	ward_and_allport	-1	6.0	n/a	feedback	poldrack-single-stim	s637	False
3.955	141.461	3.955	145.416	1	PA_with_intermediate	test	ward_and_allport	71	7.0	3.955	to_hand	poldrack-single-stim	s637	False
0.1	145.418	0.637	146.055	0	PA_with_intermediate	test	ward_and_allport	89	7.0	0.637	to_board	poldrack-single-stim	s637	False
0.1	146.06	0.131	146.191	0	PA_with_intermediate	test	ward_and_allport	89	7.0	0.131	to_hand	poldrack-single-stim	s637	False
0.1	146.192	0.629	146.821	0	PA_with_intermediate	test	ward_and_allport	89	7.0	0.629	to_board	poldrack-single-stim	s637	False
0.1	146.826	1.062	147.888	0	PA_with_intermediate	test	ward_and_allport	71	7.0	1.062	to_hand	poldrack-single-stim	s637	False
0.1	147.89	0.618	148.508	0	PA_with_intermediate	test	ward_and_allport	82	7.0	0.618	to_board	poldrack-single-stim	s637	False
0.1	148.513	0.505	149.018	0	PA_with_intermediate	test	ward_and_allport	89	7.0	0.505	to_hand	poldrack-single-stim	s637	False
0.1	149.019	0.514	149.533	0	PA_with_intermediate	test	ward_and_allport	82	7.0	0.514	to_board	poldrack-single-stim	s637	False
1.0	149.537	2.272	149.536	0	PA_with_intermediate	test	ward_and_allport	-1	7.0	n/a	feedback	poldrack-single-stim	s637	False
4.594	151.812	4.594	156.406	1	PA_with_intermediate	test	ward_and_allport	82	8.0	4.594	to_hand	poldrack-single-stim	s637	False
0.1	156.407	1.33	157.737	0	PA_with_intermediate	test	ward_and_allport	89	8.0	1.33	to_board	poldrack-single-stim	s637	False
0.1	157.743	1.483	159.226	0	PA_with_intermediate	test	ward_and_allport	82	8.0	1.483	to_hand	poldrack-single-stim	s637	False
0.1	159.227	0.616	159.843	0	PA_with_intermediate	test	ward_and_allport	71	8.0	0.616	to_board	poldrack-single-stim	s637	False
0.1	159.848	0.451	160.299	0	PA_with_intermediate	test	ward_and_allport	89	8.0	0.451	to_hand	poldrack-single-stim	s637	False
0.1	160.3	0.903	161.203	0	PA_with_intermediate	test	ward_and_allport	71	8.0	0.903	to_board	poldrack-single-stim	s637	False
1.0	161.209	2.136	161.208	0	PA_with_intermediate	test	ward_and_allport	-1	8.0	n/a	feedback	poldrack-single-stim	s637	False
3.357	163.351	3.357	166.708	1	PA_with_intermediate	test	ward_and_allport	71	9.0	3.357	to_hand	poldrack-single-stim	s637	False
0.1	166.709	0.514	167.223	0	PA_with_intermediate	test	ward_and_allport	89	9.0	0.514	to_board	poldrack-single-stim	s637	False
0.1	167.228	0.743	167.971	0	PA_with_intermediate	test	ward_and_allport	71	9.0	0.743	to_hand	poldrack-single-stim	s637	False
0.1	167.973	0.487	168.46	0	PA_with_intermediate	test	ward_and_allport	82	9.0	0.487	to_board	poldrack-single-stim	s637	False
0.1	168.465	0.451	168.916	0	PA_with_intermediate	test	ward_and_allport	89	9.0	0.451	to_hand	poldrack-single-stim	s637	False
0.1	168.917	0.679	169.596	0	PA_with_intermediate	test	ward_and_allport	71	9.0	0.679	to_board	poldrack-single-stim	s637	False
1.0	169.603	2.0	169.602	0	PA_with_intermediate	test	ward_and_allport	-1	9.0	n/a	feedback	poldrack-single-stim	s637	False
3.717	171.609	3.717	175.326	1	PA_with_intermediate	test	ward_and_allport	82	10.0	3.717	to_hand	poldrack-single-stim	s637	False
0.1	175.328	0.733	176.061	0	PA_with_intermediate	test	ward_and_allport	89	10.0	0.733	to_board	poldrack-single-stim	s637	False
0.1	176.066	1.629	177.695	0	PA_with_intermediate	test	ward_and_allport	82	10.0	1.629	to_hand	poldrack-single-stim	s637	False
0.1	177.697	1.021	178.718	0	PA_with_intermediate	test	ward_and_allport	71	10.0	1.021	to_board	poldrack-single-stim	s637	False
0.1	178.724	0.515	179.239	0	PA_with_intermediate	test	ward_and_allport	89	10.0	0.515	to_hand	poldrack-single-stim	s637	False
0.1	179.241	0.743	179.984	0	PA_with_intermediate	test	ward_and_allport	71	10.0	0.743	to_board	poldrack-single-stim	s637	False
1.0	179.99	2.0	179.989	0	PA_with_intermediate	test	ward_and_allport	-1	10.0	n/a	feedback	poldrack-single-stim	s637	False
2.535	181.995	2.535	184.53	1	PA_without_intermediate	test	ward_and_allport	71	11.0	2.535	to_hand	poldrack-single-stim	s637	False
0.1	184.532	0.633	185.165	0	PA_without_intermediate	test	ward_and_allport	89	11.0	0.633	to_board	poldrack-single-stim	s637	False
0.1	185.169	0.146	185.315	0	PA_without_intermediate	test	ward_and_allport	89	11.0	0.146	to_hand	poldrack-single-stim	s637	False
0.1	185.316	0.607	185.923	0	PA_without_intermediate	test	ward_and_allport	89	11.0	0.607	to_board	poldrack-single-stim	s637	False
0.1	185.928	0.185	186.113	0	PA_without_intermediate	test	ward_and_allport	89	11.0	0.185	to_hand	poldrack-single-stim	s637	False
0.1	186.114	0.794	186.908	0	PA_without_intermediate	test	ward_and_allport	89	11.0	0.794	to_board	poldrack-single-stim	s637	False
0.1	186.913	0.717	187.63	0	PA_without_intermediate	test	ward_and_allport	71	11.0	0.717	to_hand	poldrack-single-stim	s637	False
0.1	187.631	0.86	188.491	0	PA_without_intermediate	test	ward_and_allport	82	11.0	0.86	to_board	poldrack-single-stim	s637	False
0.1	188.498	1.261	189.759	0	PA_without_intermediate	test	ward_and_allport	71	11.0	1.261	to_hand	poldrack-single-stim	s637	False
0.1	189.76	0.663	190.423	0	PA_without_intermediate	test	ward_and_allport	89	11.0	0.663	to_board	poldrack-single-stim	s637	False
1.0	190.429	2.408	190.428	0	PA_without_intermediate	test	ward_and_allport	-1	11.0	n/a	feedback	poldrack-single-stim	s637	False
3.929	192.843	3.929	196.772	1	PA_with_intermediate	test	ward_and_allport	71	12.0	3.929	to_hand	poldrack-single-stim	s637	False
0.1	196.773	0.651	197.424	0	PA_with_intermediate	test	ward_and_allport	82	12.0	0.651	to_board	poldrack-single-stim	s637	False
0.1	197.428	0.746	198.174	0	PA_with_intermediate	test	ward_and_allport	71	12.0	0.746	to_hand	poldrack-single-stim	s637	False
0.1	198.176	0.65	198.826	0	PA_with_intermediate	test	ward_and_allport	89	12.0	0.65	to_board	poldrack-single-stim	s637	False
0.1	198.83	0.167	198.997	0	PA_with_intermediate	test	ward_and_allport	89	12.0	0.167	to_hand	poldrack-single-stim	s637	False
0.1	198.998	0.742	199.74	0	PA_with_intermediate	test	ward_and_allport	89	12.0	0.742	to_board	poldrack-single-stim	s637	False
0.1	199.744	1.1	200.844	0	PA_with_intermediate	test	ward_and_allport	82	12.0	1.1	to_hand	poldrack-single-stim	s637	False
0.1	200.846	0.659	201.505	0	PA_with_intermediate	test	ward_and_allport	71	12.0	0.659	to_board	poldrack-single-stim	s637	False
1.0	201.51	3.768	201.509	0	PA_with_intermediate	test	ward_and_allport	-1	12.0	n/a	feedback	poldrack-single-stim	s637	False
3.502	205.283	3.502	208.785	1	PA_with_intermediate	test	ward_and_allport	89	13.0	3.502	to_hand	poldrack-single-stim	s637	False
0.1	208.786	1.728	210.514	0	PA_with_intermediate	test	ward_and_allport	82	13.0	1.728	to_board	poldrack-single-stim	s637	False
0.1	210.52	1.298	211.818	0	PA_with_intermediate	test	ward_and_allport	89	13.0	1.298	to_hand	poldrack-single-stim	s637	False
0.1	211.82	0.738	212.558	0	PA_with_intermediate	test	ward_and_allport	71	13.0	0.738	to_board	poldrack-single-stim	s637	False
0.1	212.563	0.555	213.118	0	PA_with_intermediate	test	ward_and_allport	82	13.0	0.555	to_hand	poldrack-single-stim	s637	False
0.1	213.119	0.416	213.535	0	PA_with_intermediate	test	ward_and_allport	89	13.0	0.416	to_board	poldrack-single-stim	s637	False
1.0	213.542	2.68	213.541	0	PA_with_intermediate	test	ward_and_allport	-1	13.0	n/a	feedback	poldrack-single-stim	s637	False
2.713	216.228	2.713	218.941	1	PA_without_intermediate	test	ward_and_allport	82	14.0	2.713	to_hand	poldrack-single-stim	s637	False
0.1	218.942	0.928	219.87	0	PA_without_intermediate	test	ward_and_allport	71	14.0	0.928	to_board	poldrack-single-stim	s637	False
0.1	219.875	2.031	221.906	0	PA_without_intermediate	test	ward_and_allport	82	14.0	2.031	to_hand	poldrack-single-stim	s637	False
0.1	221.907	0.84	222.747	0	PA_without_intermediate	test	ward_and_allport	71	14.0	0.84	to_board	poldrack-single-stim	s637	False
0.1	222.753	1.884	224.637	0	PA_without_intermediate	test	ward_and_allport	82	14.0	1.884	to_hand	poldrack-single-stim	s637	False
0.1	224.638	0.891	225.529	0	PA_without_intermediate	test	ward_and_allport	89	14.0	0.891	to_board	poldrack-single-stim	s637	False
1.0	225.536	3.224	225.535	0	PA_without_intermediate	test	ward_and_allport	-1	14.0	n/a	feedback	poldrack-single-stim	s637	False
2.591	233.769	2.591	236.36	1	PA_without_intermediate	test	ward_and_allport	89	15.0	2.591	to_hand	poldrack-single-stim	s637	False
0.1	236.361	1.114	237.475	0	PA_without_intermediate	test	ward_and_allport	82	15.0	1.114	to_board	poldrack-single-stim	s637	False
0.1	237.48	0.789	238.269	0	PA_without_intermediate	test	ward_and_allport	89	15.0	0.789	to_hand	poldrack-single-stim	s637	False
0.1	238.271	0.774	239.045	0	PA_without_intermediate	test	ward_and_allport	82	15.0	0.774	to_board	poldrack-single-stim	s637	False
0.1	239.051	0.601	239.652	0	PA_without_intermediate	test	ward_and_allport	89	15.0	0.601	to_hand	poldrack-single-stim	s637	False
0.1	239.653	0.501	240.154	0	PA_without_intermediate	test	ward_and_allport	71	15.0	0.501	to_board	poldrack-single-stim	s637	False
1.0	240.16	3.36	240.159	0	PA_without_intermediate	test	ward_and_allport	-1	15.0	n/a	feedback	poldrack-single-stim	s637	False
1.623	243.528	1.623	245.151	1	PA_without_intermediate	test	ward_and_allport	89	16.0	1.623	to_hand	poldrack-single-stim	s637	False
0.1	245.151	0.168	245.319	0	PA_without_intermediate	test	ward_and_allport	89	16.0	0.168	to_board	poldrack-single-stim	s637	False
0.1	245.325	1.239	246.564	0	PA_without_intermediate	test	ward_and_allport	89	16.0	1.239	to_hand	poldrack-single-stim	s637	False
0.1	246.566	0.764	247.33	0	PA_without_intermediate	test	ward_and_allport	82	16.0	0.764	to_board	poldrack-single-stim	s637	False
0.1	247.335	0.975	248.31	0	PA_without_intermediate	test	ward_and_allport	89	16.0	0.975	to_hand	poldrack-single-stim	s637	False
0.1	248.311	0.829	249.14	0	PA_without_intermediate	test	ward_and_allport	82	16.0	0.829	to_board	poldrack-single-stim	s637	False
0.1	249.145	0.826	249.971	0	PA_without_intermediate	test	ward_and_allport	89	16.0	0.826	to_hand	poldrack-single-stim	s637	False
0.1	249.972	0.563	250.535	0	PA_without_intermediate	test	ward_and_allport	71	16.0	0.563	to_board	poldrack-single-stim	s637	False
1.0	250.542	2.0	250.541	0	PA_without_intermediate	test	ward_and_allport	-1	16.0	n/a	feedback	poldrack-single-stim	s637	False
1.95	252.549	1.95	254.499	1	PA_without_intermediate	test	ward_and_allport	82	17.0	1.95	to_hand	poldrack-single-stim	s637	False
0.1	254.5	0.796	255.296	0	PA_without_intermediate	test	ward_and_allport	71	17.0	0.796	to_board	poldrack-single-stim	s637	False
0.1	255.302	1.114	256.416	0	PA_without_intermediate	test	ward_and_allport	82	17.0	1.114	to_hand	poldrack-single-stim	s637	False
0.1	256.417	0.611	257.028	0	PA_without_intermediate	test	ward_and_allport	89	17.0	0.611	to_board	poldrack-single-stim	s637	False
0.1	257.035	0.738	257.773	0	PA_without_intermediate	test	ward_and_allport	82	17.0	0.738	to_hand	poldrack-single-stim	s637	False
0.1	257.773	0.58	258.353	0	PA_without_intermediate	test	ward_and_allport	71	17.0	0.58	to_board	poldrack-single-stim	s637	False
1.0	258.362	2.408	258.361	0	PA_without_intermediate	test	ward_and_allport	-1	17.0	n/a	feedback	poldrack-single-stim	s637	False
2.455	260.777	2.455	263.232	1	PA_with_intermediate	test	ward_and_allport	82	18.0	2.455	to_hand	poldrack-single-stim	s637	False
0.1	263.234	0.954	264.188	0	PA_with_intermediate	test	ward_and_allport	71	18.0	0.954	to_board	poldrack-single-stim	s637	False
0.1	264.195	1.732	265.927	0	PA_with_intermediate	test	ward_and_allport	82	18.0	1.732	to_hand	poldrack-single-stim	s637	False
0.1	265.928	0.582	266.51	0	PA_with_intermediate	test	ward_and_allport	89	18.0	0.582	to_board	poldrack-single-stim	s637	False
0.1	266.516	0.15	266.666	0	PA_with_intermediate	test	ward_and_allport	89	18.0	0.15	to_hand	poldrack-single-stim	s637	False
0.1	266.668	0.646	267.314	0	PA_with_intermediate	test	ward_and_allport	89	18.0	0.646	to_board	poldrack-single-stim	s637	False
0.1	267.321	0.82	268.141	0	PA_with_intermediate	test	ward_and_allport	71	18.0	0.82	to_hand	poldrack-single-stim	s637	False
0.1	268.143	0.559	268.702	0	PA_with_intermediate	test	ward_and_allport	82	18.0	0.559	to_board	poldrack-single-stim	s637	False
1.0	268.71	2.136	268.709	0	PA_with_intermediate	test	ward_and_allport	-1	18.0	n/a	feedback	poldrack-single-stim	s637	False
1.742	270.854	1.742	272.596	1	PA_without_intermediate	test	ward_and_allport	89	19.0	1.742	to_hand	poldrack-single-stim	s637	False
0.1	272.597	0.707	273.304	0	PA_without_intermediate	test	ward_and_allport	71	19.0	0.707	to_board	poldrack-single-stim	s637	False
0.1	273.31	0.87	274.18	0	PA_without_intermediate	test	ward_and_allport	89	19.0	0.87	to_hand	poldrack-single-stim	s637	False
0.1	274.182	0.769	274.951	0	PA_without_intermediate	test	ward_and_allport	82	19.0	0.769	to_board	poldrack-single-stim	s637	False
0.1	274.959	0.601	275.56	0	PA_without_intermediate	test	ward_and_allport	89	19.0	0.601	to_hand	poldrack-single-stim	s637	False
0.1	275.562	0.621	276.183	0	PA_without_intermediate	test	ward_and_allport	71	19.0	0.621	to_board	poldrack-single-stim	s637	False
1.0	276.191	5.128	276.19	0	PA_without_intermediate	test	ward_and_allport	-1	19.0	n/a	feedback	poldrack-single-stim	s637	False
1.645	281.326	1.645	282.971	1	PA_without_intermediate	test	ward_and_allport	89	20.0	1.645	to_hand	poldrack-single-stim	s637	False
0.1	282.972	0.147	283.119	0	PA_without_intermediate	test	ward_and_allport	89	20.0	0.147	to_board	poldrack-single-stim	s637	False
0.1	283.125	0.567	283.692	0	PA_without_intermediate	test	ward_and_allport	89	20.0	0.567	to_hand	poldrack-single-stim	s637	False
0.1	283.693	0.143	283.836	0	PA_without_intermediate	test	ward_and_allport	89	20.0	0.143	to_board	poldrack-single-stim	s637	False
0.1	283.843	0.409	284.252	0	PA_without_intermediate	test	ward_and_allport	89	20.0	0.409	to_hand	poldrack-single-stim	s637	False
0.1	284.254	0.699	284.953	0	PA_without_intermediate	test	ward_and_allport	82	20.0	0.699	to_board	poldrack-single-stim	s637	False
0.1	284.96	0.833	285.793	0	PA_without_intermediate	test	ward_and_allport	89	20.0	0.833	to_hand	poldrack-single-stim	s637	False
0.1	285.794	0.646	286.44	0	PA_without_intermediate	test	ward_and_allport	71	20.0	0.646	to_board	poldrack-single-stim	s637	False
0.1	286.447	0.527	286.974	0	PA_without_intermediate	test	ward_and_allport	89	20.0	0.527	to_hand	poldrack-single-stim	s637	False
0.1	286.976	0.539	287.515	0	PA_without_intermediate	test	ward_and_allport	82	20.0	0.539	to_board	poldrack-single-stim	s637	False
1.0	287.523	2.136	287.522	0	PA_without_intermediate	test	ward_and_allport	-1	20.0	n/a	feedback	poldrack-single-stim	s637	False
2.095	289.666	2.095	291.761	1	PA_without_intermediate	test	ward_and_allport	71	21.0	2.095	to_hand	poldrack-single-stim	s637	False
0.1	291.762	1.627	293.389	0	PA_without_intermediate	test	ward_and_allport	82	21.0	1.627	to_board	poldrack-single-stim	s637	False
0.1	293.396	1.346	294.742	0	PA_without_intermediate	test	ward_and_allport	71	21.0	1.346	to_hand	poldrack-single-stim	s637	False
0.1	294.743	0.641	295.384	0	PA_without_intermediate	test	ward_and_allport	89	21.0	0.641	to_board	poldrack-single-stim	s637	False
0.1	295.391	0.815	296.206	0	PA_without_intermediate	test	ward_and_allport	71	21.0	0.815	to_hand	poldrack-single-stim	s637	False
0.1	296.208	0.589	296.797	0	PA_without_intermediate	test	ward_and_allport	82	21.0	0.589	to_board	poldrack-single-stim	s637	False
1.0	296.805	5.264	296.804	0	PA_without_intermediate	test	ward_and_allport	-1	21.0	n/a	feedback	poldrack-single-stim	s637	False
1.21	302.077	1.21	303.287	1	PA_with_intermediate	test	ward_and_allport	71	22.0	1.21	to_hand	poldrack-single-stim	s637	False
0.1	303.289	1.482	304.771	0	PA_with_intermediate	test	ward_and_allport	82	22.0	1.482	to_board	poldrack-single-stim	s637	False
0.1	304.779	1.327	306.106	0	PA_with_intermediate	test	ward_and_allport	71	22.0	1.327	to_hand	poldrack-single-stim	s637	False
0.1	306.108	0.628	306.736	0	PA_with_intermediate	test	ward_and_allport	89	22.0	0.628	to_board	poldrack-single-stim	s637	False
0.1	306.744	0.183	306.927	0	PA_with_intermediate	test	ward_and_allport	89	22.0	0.183	to_hand	poldrack-single-stim	s637	False
0.1	306.929	0.579	307.508	0	PA_with_intermediate	test	ward_and_allport	89	22.0	0.579	to_board	poldrack-single-stim	s637	False
0.1	307.516	0.781	308.297	0	PA_with_intermediate	test	ward_and_allport	82	22.0	0.781	to_hand	poldrack-single-stim	s637	False
0.1	308.299	0.569	308.868	0	PA_with_intermediate	test	ward_and_allport	89	22.0	0.569	to_board	poldrack-single-stim	s637	False
1.0	308.877	4.04	308.876	0	PA_with_intermediate	test	ward_and_allport	-1	22.0	n/a	feedback	poldrack-single-stim	s637	False
2.022	312.924	2.022	314.946	1	PA_with_intermediate	test	ward_and_allport	89	23.0	2.022	to_hand	poldrack-single-stim	s637	False
0.1	314.949	1.16	316.109	0	PA_with_intermediate	test	ward_and_allport	71	23.0	1.16	to_board	poldrack-single-stim	s637	False
0.1	316.116	0.579	316.695	0	PA_with_intermediate	test	ward_and_allport	89	23.0	0.579	to_hand	poldrack-single-stim	s637	False
0.1	316.697	0.175	316.872	0	PA_with_intermediate	test	ward_and_allport	89	23.0	0.175	to_board	poldrack-single-stim	s637	False
0.1	316.88	0.528	317.408	0	PA_with_intermediate	test	ward_and_allport	89	23.0	0.528	to_hand	poldrack-single-stim	s637	False
0.1	317.408	0.557	317.965	0	PA_with_intermediate	test	ward_and_allport	82	23.0	0.557	to_board	poldrack-single-stim	s637	False
0.1	317.972	0.555	318.527	0	PA_with_intermediate	test	ward_and_allport	71	23.0	0.555	to_hand	poldrack-single-stim	s637	False
0.1	318.528	0.452	318.98	0	PA_with_intermediate	test	ward_and_allport	89	23.0	0.452	to_board	poldrack-single-stim	s637	False
1.0	318.99	2.136	318.989	0	PA_with_intermediate	test	ward_and_allport	-1	23.0	n/a	feedback	poldrack-single-stim	s637	False
1.191	321.134	1.191	322.325	1	PA_with_intermediate	test	ward_and_allport	89	24.0	1.191	to_hand	poldrack-single-stim	s637	False
0.1	322.326	1.823	324.149	0	PA_with_intermediate	test	ward_and_allport	71	24.0	1.823	to_board	poldrack-single-stim	s637	False
0.1	324.156	0.541	324.697	0	PA_with_intermediate	test	ward_and_allport	89	24.0	0.541	to_hand	poldrack-single-stim	s637	False
0.1	324.698	0.756	325.454	0	PA_with_intermediate	test	ward_and_allport	82	24.0	0.756	to_board	poldrack-single-stim	s637	False
0.1	325.462	0.683	326.145	0	PA_with_intermediate	test	ward_and_allport	71	24.0	0.683	to_hand	poldrack-single-stim	s637	False
0.1	326.146	0.63	326.776	0	PA_with_intermediate	test	ward_and_allport	89	24.0	0.63	to_board	poldrack-single-stim	s637	False
1.0	326.784	2.408	326.783	0	PA_with_intermediate	test	ward_and_allport	-1	24.0	n/a	feedback	poldrack-single-stim	s637	False
1.115	329.201	1.115	330.316	1	PA_without_intermediate	test	ward_and_allport	71	25.0	1.115	to_hand	poldrack-single-stim	s637	False
0.1	330.317	0.504	330.821	0	PA_without_intermediate	test	ward_and_allport	82	25.0	0.504	to_board	poldrack-single-stim	s637	False
0.1	330.829	1.175	332.004	0	PA_without_intermediate	test	ward_and_allport	71	25.0	1.175	to_hand	poldrack-single-stim	s637	False
0.1	332.004	0.448	332.452	0	PA_without_intermediate	test	ward_and_allport	89	25.0	0.448	to_board	poldrack-single-stim	s637	False
0.1	332.46	0.766	333.226	0	PA_without_intermediate	test	ward_and_allport	71	25.0	0.766	to_hand	poldrack-single-stim	s637	False
0.1	333.227	0.353	333.58	0	PA_without_intermediate	test	ward_and_allport	82	25.0	0.353	to_board	poldrack-single-stim	s637	False
1.0	333.59	2.68	333.589	0	PA_without_intermediate	test	ward_and_allport	-1	25.0	n/a	feedback	poldrack-single-stim	s637	False
0.88	336.279	0.88	337.159	1	PA_with_intermediate	test	ward_and_allport	89	26.0	0.88	to_hand	poldrack-single-stim	s637	False
0.1	337.16	1.866	339.026	0	PA_with_intermediate	test	ward_and_allport	82	26.0	1.866	to_board	poldrack-single-stim	s637	False
0.1	339.035	0.799	339.834	0	PA_with_intermediate	test	ward_and_allport	89	26.0	0.799	to_hand	poldrack-single-stim	s637	False
0.1	339.836	0.158	339.994	0	PA_with_intermediate	test	ward_and_allport	89	26.0	0.158	to_board	poldrack-single-stim	s637	False
0.1	340.004	0.598	340.602	0	PA_with_intermediate	test	ward_and_allport	89	26.0	0.598	to_hand	poldrack-single-stim	s637	False
0.1	340.604	0.615	341.219	0	PA_with_intermediate	test	ward_and_allport	71	26.0	0.615	to_board	poldrack-single-stim	s637	False
0.1	341.229	0.873	342.102	0	PA_with_intermediate	test	ward_and_allport	82	26.0	0.873	to_hand	poldrack-single-stim	s637	False
0.1	342.103	0.58	342.683	0	PA_with_intermediate	test	ward_and_allport	71	26.0	0.58	to_board	poldrack-single-stim	s637	False
1.0	342.695	4.72	342.694	0	PA_with_intermediate	test	ward_and_allport	-1	26.0	n/a	feedback	poldrack-single-stim	s637	False
0.946	347.423	0.946	348.369	1	PA_without_intermediate	test	ward_and_allport	89	27.0	0.946	to_hand	poldrack-single-stim	s637	False
0.1	348.369	0.712	349.081	0	PA_without_intermediate	test	ward_and_allport	82	27.0	0.712	to_board	poldrack-single-stim	s637	False
0.1	349.09	0.707	349.797	0	PA_without_intermediate	test	ward_and_allport	89	27.0	0.707	to_hand	poldrack-single-stim	s637	False
0.1	349.799	0.546	350.345	0	PA_without_intermediate	test	ward_and_allport	71	27.0	0.546	to_board	poldrack-single-stim	s637	False
0.1	350.354	0.45	350.804	0	PA_without_intermediate	test	ward_and_allport	89	27.0	0.45	to_hand	poldrack-single-stim	s637	False
0.1	350.804	0.474	351.278	0	PA_without_intermediate	test	ward_and_allport	82	27.0	0.474	to_board	poldrack-single-stim	s637	False
1.0	351.288	3.224	351.287	0	PA_without_intermediate	test	ward_and_allport	-1	27.0	n/a	feedback	poldrack-single-stim	s637	False
1.336	354.527	1.336	355.863	1	PA_without_intermediate	test	ward_and_allport	82	28.0	1.336	to_hand	poldrack-single-stim	s637	False
0.1	355.864	0.858	356.722	0	PA_without_intermediate	test	ward_and_allport	71	28.0	0.858	to_board	poldrack-single-stim	s637	False
0.1	356.728	0.825	357.553	0	PA_without_intermediate	test	ward_and_allport	82	28.0	0.825	to_hand	poldrack-single-stim	s637	False
0.1	357.555	1.179	358.734	0	PA_without_intermediate	test	ward_and_allport	71	28.0	1.179	to_board	poldrack-single-stim	s637	False
0.1	358.743	1.077	359.82	0	PA_without_intermediate	test	ward_and_allport	82	28.0	1.077	to_hand	poldrack-single-stim	s637	False
0.1	359.821	0.5	360.321	0	PA_without_intermediate	test	ward_and_allport	89	28.0	0.5	to_board	poldrack-single-stim	s637	False
1.0	360.332	2.272	360.331	0	PA_without_intermediate	test	ward_and_allport	-1	28.0	n/a	feedback	poldrack-single-stim	s637	False
2.742	362.614	2.742	365.356	1	PA_with_intermediate	test	ward_and_allport	71	29.0	2.742	to_hand	poldrack-single-stim	s637	False
0.1	365.358	0.83	366.188	0	PA_with_intermediate	test	ward_and_allport	82	29.0	0.83	to_board	poldrack-single-stim	s637	False
0.1	366.197	1.193	367.39	0	PA_with_intermediate	test	ward_and_allport	71	29.0	1.193	to_hand	poldrack-single-stim	s637	False
0.1	367.392	0.434	367.826	0	PA_with_intermediate	test	ward_and_allport	89	29.0	0.434	to_board	poldrack-single-stim	s637	False
0.1	367.836	0.472	368.308	0	PA_with_intermediate	test	ward_and_allport	82	29.0	0.472	to_hand	poldrack-single-stim	s637	False
0.1	368.309	0.398	368.707	0	PA_with_intermediate	test	ward_and_allport	89	29.0	0.398	to_board	poldrack-single-stim	s637	False
1.0	368.717	3.632	368.716	0	PA_with_intermediate	test	ward_and_allport	-1	29.0	n/a	feedback	poldrack-single-stim	s637	False
0.949	377.359	0.949	378.308	1	PA_without_intermediate	test	ward_and_allport	71	30.0	0.949	to_hand	poldrack-single-stim	s637	False
0.1	378.309	0.541	378.85	0	PA_without_intermediate	test	ward_and_allport	82	30.0	0.541	to_board	poldrack-single-stim	s637	False
0.1	378.859	0.467	379.326	0	PA_without_intermediate	test	ward_and_allport	71	30.0	0.467	to_hand	poldrack-single-stim	s637	False
0.1	379.327	0.443	379.77	0	PA_without_intermediate	test	ward_and_allport	82	30.0	0.443	to_board	poldrack-single-stim	s637	False
0.1	379.781	0.901	380.682	0	PA_without_intermediate	test	ward_and_allport	71	30.0	0.901	to_hand	poldrack-single-stim	s637	False
0.1	380.683	0.388	381.071	0	PA_without_intermediate	test	ward_and_allport	89	30.0	0.388	to_board	poldrack-single-stim	s637	False
1.0	381.082	2.408	381.081	0	PA_without_intermediate	test	ward_and_allport	-1	30.0	n/a	feedback	poldrack-single-stim	s637	False
1.626	383.5	1.626	385.126	1	PA_without_intermediate	test	ward_and_allport	71	31.0	1.626	to_hand	poldrack-single-stim	s637	False
0.1	385.127	0.464	385.591	0	PA_without_intermediate	test	ward_and_allport	89	31.0	0.464	to_board	poldrack-single-stim	s637	False
0.1	385.6	1.365	386.965	0	PA_without_intermediate	test	ward_and_allport	71	31.0	1.365	to_hand	poldrack-single-stim	s637	False
0.1	386.966	0.37	387.336	0	PA_without_intermediate	test	ward_and_allport	89	31.0	0.37	to_board	poldrack-single-stim	s637	False
0.1	387.342	0.153	387.495	0	PA_without_intermediate	test	ward_and_allport	89	31.0	0.153	to_hand	poldrack-single-stim	s637	False
0.1	387.496	0.58	388.076	0	PA_without_intermediate	test	ward_and_allport	89	31.0	0.58	to_board	poldrack-single-stim	s637	False
0.1	388.084	0.847	388.931	0	PA_without_intermediate	test	ward_and_allport	71	31.0	0.847	to_hand	poldrack-single-stim	s637	False
0.1	388.932	0.517	389.449	0	PA_without_intermediate	test	ward_and_allport	82	31.0	0.517	to_board	poldrack-single-stim	s637	False
1.0	389.457	2.0	389.456	0	PA_without_intermediate	test	ward_and_allport	-1	31.0	n/a	feedback	poldrack-single-stim	s637	False
1.287	391.465	1.287	392.752	1	PA_with_intermediate	test	ward_and_allport	89	32.0	1.287	to_hand	poldrack-single-stim	s637	False
0.1	392.753	1.322	394.075	0	PA_with_intermediate	test	ward_and_allport	71	32.0	1.322	to_board	poldrack-single-stim	s637	False
0.1	394.082	0.449	394.531	0	PA_with_intermediate	test	ward_and_allport	89	32.0	0.449	to_hand	poldrack-single-stim	s637	False
0.1	394.532	0.664	395.196	0	PA_with_intermediate	test	ward_and_allport	82	32.0	0.664	to_board	poldrack-single-stim	s637	False
0.1	395.206	0.54	395.746	0	PA_with_intermediate	test	ward_and_allport	71	32.0	0.54	to_hand	poldrack-single-stim	s637	False
0.1	395.747	0.49	396.237	0	PA_with_intermediate	test	ward_and_allport	82	32.0	0.49	to_board	poldrack-single-stim	s637	False
1.0	396.247	2.0	396.246	0	PA_with_intermediate	test	ward_and_allport	-1	32.0	n/a	feedback	poldrack-single-stim	s637	False
1.827	398.255	1.827	400.082	1	PA_with_intermediate	test	ward_and_allport	71	33.0	1.827	to_hand	poldrack-single-stim	s637	False
0.1	400.084	0.576	400.66	0	PA_with_intermediate	test	ward_and_allport	82	33.0	0.576	to_board	poldrack-single-stim	s637	False
0.1	400.667	0.97	401.637	0	PA_with_intermediate	test	ward_and_allport	71	33.0	0.97	to_hand	poldrack-single-stim	s637	False
0.1	401.638	0.49	402.128	0	PA_with_intermediate	test	ward_and_allport	89	33.0	0.49	to_board	poldrack-single-stim	s637	False
0.1	402.135	0.531	402.666	0	PA_with_intermediate	test	ward_and_allport	82	33.0	0.531	to_hand	poldrack-single-stim	s637	False
0.1	402.668	0.391	403.059	0	PA_with_intermediate	test	ward_and_allport	71	33.0	0.391	to_board	poldrack-single-stim	s637	False
1.0	403.07	2.0	403.069	0	PA_with_intermediate	test	ward_and_allport	-1	33.0	n/a	feedback	poldrack-single-stim	s637	False
3.017	405.08	3.017	408.097	1	PA_with_intermediate	test	ward_and_allport	82	34.0	3.017	to_hand	poldrack-single-stim	s637	False
0.1	408.097	1.515	409.612	0	PA_with_intermediate	test	ward_and_allport	71	34.0	1.515	to_board	poldrack-single-stim	s637	False
0.1	409.619	0.913	410.532	0	PA_with_intermediate	test	ward_and_allport	82	34.0	0.913	to_hand	poldrack-single-stim	s637	False
0.1	410.533	0.872	411.405	0	PA_with_intermediate	test	ward_and_allport	89	34.0	0.872	to_board	poldrack-single-stim	s637	False
0.1	411.413	0.939	412.352	0	PA_with_intermediate	test	ward_and_allport	71	34.0	0.939	to_hand	poldrack-single-stim	s637	False
0.1	412.354	0.771	413.125	0	PA_with_intermediate	test	ward_and_allport	82	34.0	0.771	to_board	poldrack-single-stim	s637	False
1.0	413.135	2.408	413.134	0	PA_with_intermediate	test	ward_and_allport	-1	34.0	n/a	feedback	poldrack-single-stim	s637	False
1.207	415.554	1.207	416.761	1	PA_without_intermediate	test	ward_and_allport	82	35.0	1.207	to_hand	poldrack-single-stim	s637	False
0.1	416.761	0.976	417.737	0	PA_without_intermediate	test	ward_and_allport	89	35.0	0.976	to_board	poldrack-single-stim	s637	False
0.1	417.747	1.382	419.129	0	PA_without_intermediate	test	ward_and_allport	82	35.0	1.382	to_hand	poldrack-single-stim	s637	False
0.1	419.13	0.625	419.755	0	PA_without_intermediate	test	ward_and_allport	71	35.0	0.625	to_board	poldrack-single-stim	s637	False
0.1	419.761	0.519	420.28	0	PA_without_intermediate	test	ward_and_allport	82	35.0	0.519	to_hand	poldrack-single-stim	s637	False
0.1	420.282	0.425	420.707	0	PA_without_intermediate	test	ward_and_allport	89	35.0	0.425	to_board	poldrack-single-stim	s637	False
1.0	420.715	2.816	420.714	0	PA_without_intermediate	test	ward_and_allport	-1	35.0	n/a	feedback	poldrack-single-stim	s637	False
1.022	423.538	1.022	424.56	1	PA_with_intermediate	test	ward_and_allport	82	36.0	1.022	to_hand	poldrack-single-stim	s637	False
0.1	424.561	0.937	425.498	0	PA_with_intermediate	test	ward_and_allport	71	36.0	0.937	to_board	poldrack-single-stim	s637	False
0.1	425.505	1.808	427.313	0	PA_with_intermediate	test	ward_and_allport	82	36.0	1.808	to_hand	poldrack-single-stim	s637	False
0.1	427.313	0.566	427.879	0	PA_with_intermediate	test	ward_and_allport	89	36.0	0.566	to_board	poldrack-single-stim	s637	False
0.1	427.888	0.744	428.632	0	PA_with_intermediate	test	ward_and_allport	71	36.0	0.744	to_hand	poldrack-single-stim	s637	False
0.1	428.634	0.378	429.012	0	PA_with_intermediate	test	ward_and_allport	89	36.0	0.378	to_board	poldrack-single-stim	s637	False
1.0	429.023	4.176	429.022	0	PA_with_intermediate	test	ward_and_allport	-1	36.0	n/a	feedback	poldrack-single-stim	s637	False
2.478	433.21	2.478	435.688	1	PA_with_intermediate	test	ward_and_allport	89	37.0	2.478	to_hand	poldrack-single-stim	s637	False
0.1	435.69	0.894	436.584	0	PA_with_intermediate	test	ward_and_allport	71	37.0	0.894	to_board	poldrack-single-stim	s637	False
0.1	436.593	0.622	437.215	0	PA_with_intermediate	test	ward_and_allport	89	37.0	0.622	to_hand	poldrack-single-stim	s637	False
0.1	437.215	0.64	437.855	0	PA_with_intermediate	test	ward_and_allport	82	37.0	0.64	to_board	poldrack-single-stim	s637	False
0.1	437.866	0.581	438.447	0	PA_with_intermediate	test	ward_and_allport	71	37.0	0.581	to_hand	poldrack-single-stim	s637	False
0.1	438.448	0.457	438.905	0	PA_with_intermediate	test	ward_and_allport	82	37.0	0.457	to_board	poldrack-single-stim	s637	False
1.0	438.917	3.36	438.916	0	PA_with_intermediate	test	ward_and_allport	-1	37.0	n/a	feedback	poldrack-single-stim	s637	False
1.55	442.287	1.55	443.837	1	PA_with_intermediate	test	ward_and_allport	71	38.0	1.55	to_hand	poldrack-single-stim	s637	False
0.1	443.837	0.846	444.683	0	PA_with_intermediate	test	ward_and_allport	89	38.0	0.846	to_board	poldrack-single-stim	s637	False
0.1	444.69	0.124	444.814	0	PA_with_intermediate	test	ward_and_allport	89	38.0	0.124	to_hand	poldrack-single-stim	s637	False
0.1	444.815	0.547	445.362	0	PA_with_intermediate	test	ward_and_allport	89	38.0	0.547	to_board	poldrack-single-stim	s637	False
0.1	445.371	0.627	445.998	0	PA_with_intermediate	test	ward_and_allport	71	38.0	0.627	to_hand	poldrack-single-stim	s637	False
0.1	446.0	0.479	446.479	0	PA_with_intermediate	test	ward_and_allport	82	38.0	0.479	to_board	poldrack-single-stim	s637	False
0.1	446.489	0.453	446.942	0	PA_with_intermediate	test	ward_and_allport	89	38.0	0.453	to_hand	poldrack-single-stim	s637	False
0.1	446.942	0.728	447.67	0	PA_with_intermediate	test	ward_and_allport	82	38.0	0.728	to_board	poldrack-single-stim	s637	False
1.0	447.679	2.0	447.678	0	PA_with_intermediate	test	ward_and_allport	-1	38.0	n/a	feedback	poldrack-single-stim	s637	False
2.464	449.688	2.464	452.152	1	PA_without_intermediate	test	ward_and_allport	82	39.0	2.464	to_hand	poldrack-single-stim	s637	False
0.1	452.153	0.691	452.844	0	PA_without_intermediate	test	ward_and_allport	71	39.0	0.691	to_board	poldrack-single-stim	s637	False
0.1	452.852	0.854	453.706	0	PA_without_intermediate	test	ward_and_allport	82	39.0	0.854	to_hand	poldrack-single-stim	s637	False
0.1	453.707	0.483	454.19	0	PA_without_intermediate	test	ward_and_allport	89	39.0	0.483	to_board	poldrack-single-stim	s637	False
0.1	454.201	0.173	454.374	0	PA_without_intermediate	test	ward_and_allport	89	39.0	0.173	to_hand	poldrack-single-stim	s637	False
0.1	454.376	0.595	454.971	0	PA_without_intermediate	test	ward_and_allport	89	39.0	0.595	to_board	poldrack-single-stim	s637	False
0.1	454.982	0.159	455.141	0	PA_without_intermediate	test	ward_and_allport	89	39.0	0.159	to_hand	poldrack-single-stim	s637	False
0.1	455.142	0.434	455.576	0	PA_without_intermediate	test	ward_and_allport	89	39.0	0.434	to_board	poldrack-single-stim	s637	False
0.1	455.585	1.398	456.983	0	PA_without_intermediate	test	ward_and_allport	71	39.0	1.398	to_hand	poldrack-single-stim	s637	False
0.1	456.984	1.065	458.049	0	PA_without_intermediate	test	ward_and_allport	71	39.0	1.065	to_board	poldrack-single-stim	s637	False
0.1	458.059	0.807	458.866	0	PA_without_intermediate	test	ward_and_allport	82	39.0	0.807	to_hand	poldrack-single-stim	s637	False
0.1	458.868	0.551	459.419	0	PA_without_intermediate	test	ward_and_allport	71	39.0	0.551	to_board	poldrack-single-stim	s637	False
1.0	459.429	2.408	459.428	0	PA_without_intermediate	test	ward_and_allport	-1	39.0	n/a	feedback	poldrack-single-stim	s637	False
1.602	461.847	1.602	463.449	1	PA_with_intermediate	test	ward_and_allport	89	40.0	1.602	to_hand	poldrack-single-stim	s637	False
0.1	463.451	0.133	463.584	0	PA_with_intermediate	test	ward_and_allport	89	40.0	0.133	to_board	poldrack-single-stim	s637	False
0.1	463.593	0.579	464.172	0	PA_with_intermediate	test	ward_and_allport	89	40.0	0.579	to_hand	poldrack-single-stim	s637	False
0.1	464.173	0.634	464.807	0	PA_with_intermediate	test	ward_and_allport	82	40.0	0.634	to_board	poldrack-single-stim	s637	False
0.1	464.816	0.641	465.457	0	PA_with_intermediate	test	ward_and_allport	89	40.0	0.641	to_hand	poldrack-single-stim	s637	False
0.1	465.459	0.173	465.632	0	PA_with_intermediate	test	ward_and_allport	89	40.0	0.173	to_board	poldrack-single-stim	s637	False
0.1	465.642	0.437	466.079	0	PA_with_intermediate	test	ward_and_allport	89	40.0	0.437	to_hand	poldrack-single-stim	s637	False
0.1	466.081	0.527	466.608	0	PA_with_intermediate	test	ward_and_allport	71	40.0	0.527	to_board	poldrack-single-stim	s637	False
0.1	466.617	2.197	468.814	0	PA_with_intermediate	test	ward_and_allport	82	40.0	2.197	to_hand	poldrack-single-stim	s637	False
0.1	468.815	2.183	470.998	0	PA_with_intermediate	test	ward_and_allport	71	40.0	2.183	to_board	poldrack-single-stim	s637	False
1.0	471.009	2.816	471.008	0	PA_with_intermediate	test	ward_and_allport	-1	40.0	n/a	feedback	poldrack-single-stim	s637	False
1.512	473.836	1.512	475.348	1	PA_without_intermediate	test	ward_and_allport	82	41.0	1.512	to_hand	poldrack-single-stim	s637	False
0.1	475.349	0.518	475.867	0	PA_without_intermediate	test	ward_and_allport	89	41.0	0.518	to_board	poldrack-single-stim	s637	False
0.1	475.88	0.146	476.026	0	PA_without_intermediate	test	ward_and_allport	89	41.0	0.146	to_hand	poldrack-single-stim	s637	False
0.1	476.027	0.62	476.647	0	PA_without_intermediate	test	ward_and_allport	89	41.0	0.62	to_board	poldrack-single-stim	s637	False
0.1	476.658	0.592	477.25	0	PA_without_intermediate	test	ward_and_allport	82	41.0	0.592	to_hand	poldrack-single-stim	s637	False
0.1	477.25	0.961	478.211	0	PA_without_intermediate	test	ward_and_allport	71	41.0	0.961	to_board	poldrack-single-stim	s637	False
0.1	478.221	0.545	478.766	0	PA_without_intermediate	test	ward_and_allport	82	41.0	0.545	to_hand	poldrack-single-stim	s637	False
0.1	478.767	0.451	479.218	0	PA_without_intermediate	test	ward_and_allport	89	41.0	0.451	to_board	poldrack-single-stim	s637	False
1.0	479.227	3.088	479.226	0	PA_without_intermediate	test	ward_and_allport	-1	41.0	n/a	feedback	poldrack-single-stim	s637	False
1.125	482.326	1.125	483.451	1	PA_without_intermediate	test	ward_and_allport	89	42.0	1.125	to_hand	poldrack-single-stim	s637	False
0.1	483.452	0.53	483.982	0	PA_without_intermediate	test	ward_and_allport	71	42.0	0.53	to_board	poldrack-single-stim	s637	False
0.1	483.992	0.507	484.499	0	PA_without_intermediate	test	ward_and_allport	89	42.0	0.507	to_hand	poldrack-single-stim	s637	False
0.1	484.501	0.527	485.028	0	PA_without_intermediate	test	ward_and_allport	71	42.0	0.527	to_board	poldrack-single-stim	s637	False
0.1	485.036	0.659	485.695	0	PA_without_intermediate	test	ward_and_allport	89	42.0	0.659	to_hand	poldrack-single-stim	s637	False
0.1	485.695	0.505	486.2	0	PA_without_intermediate	test	ward_and_allport	82	42.0	0.505	to_board	poldrack-single-stim	s637	False
1.0	486.211	2.136	486.21	0	PA_without_intermediate	test	ward_and_allport	-1	42.0	n/a	feedback	poldrack-single-stim	s637	False
1.146	488.356	1.146	489.502	1	PA_without_intermediate	test	ward_and_allport	71	43.0	1.146	to_hand	poldrack-single-stim	s637	False
0.1	489.504	0.475	489.979	0	PA_without_intermediate	test	ward_and_allport	89	43.0	0.475	to_board	poldrack-single-stim	s637	False
0.1	489.987	2.026	492.013	0	PA_without_intermediate	test	ward_and_allport	71	43.0	2.026	to_hand	poldrack-single-stim	s637	False
0.1	492.015	0.654	492.669	0	PA_without_intermediate	test	ward_and_allport	82	43.0	0.654	to_board	poldrack-single-stim	s637	False
0.1	492.678	0.788	493.466	0	PA_without_intermediate	test	ward_and_allport	71	43.0	0.788	to_hand	poldrack-single-stim	s637	False
0.1	493.468	0.838	494.306	0	PA_without_intermediate	test	ward_and_allport	89	43.0	0.838	to_board	poldrack-single-stim	s637	False
1.0	494.315	7.168	494.314	0	PA_without_intermediate	test	ward_and_allport	-1	43.0	n/a	feedback	poldrack-single-stim	s637	False
1.206	501.493	1.206	502.699	1	PA_without_intermediate	test	ward_and_allport	89	44.0	1.206	to_hand	poldrack-single-stim	s637	False
0.1	502.7	0.44	503.14	0	PA_without_intermediate	test	ward_and_allport	71	44.0	0.44	to_board	poldrack-single-stim	s637	False
0.1	503.149	0.406	503.555	0	PA_without_intermediate	test	ward_and_allport	89	44.0	0.406	to_hand	poldrack-single-stim	s637	False
0.1	503.556	0.39	503.946	0	PA_without_intermediate	test	ward_and_allport	71	44.0	0.39	to_board	poldrack-single-stim	s637	False
0.1	503.959	0.489	504.448	0	PA_without_intermediate	test	ward_and_allport	89	44.0	0.489	to_hand	poldrack-single-stim	s637	False
0.1	504.449	0.423	504.872	0	PA_without_intermediate	test	ward_and_allport	82	44.0	0.423	to_board	poldrack-single-stim	s637	False
1.0	504.886	2.816	504.885	0	PA_without_intermediate	test	ward_and_allport	-1	44.0	n/a	feedback	poldrack-single-stim	s637	False
1.727	512.718	1.727	514.445	1	PA_with_intermediate	test	ward_and_allport	82	45.0	1.727	to_hand	poldrack-single-stim	s637	False
0.1	514.446	0.653	515.099	0	PA_with_intermediate	test	ward_and_allport	89	45.0	0.653	to_board	poldrack-single-stim	s637	False
0.1	515.111	2.77	517.881	0	PA_with_intermediate	test	ward_and_allport	82	45.0	2.77	to_hand	poldrack-single-stim	s637	False
0.1	517.883	0.946	518.829	0	PA_with_intermediate	test	ward_and_allport	71	45.0	0.946	to_board	poldrack-single-stim	s637	False
0.1	518.843	1.788	520.631	0	PA_with_intermediate	test	ward_and_allport	82	45.0	1.788	to_hand	poldrack-single-stim	s637	False
0.1	520.632	0.993	521.625	0	PA_with_intermediate	test	ward_and_allport	82	45.0	0.993	to_board	poldrack-single-stim	s637	False
0.1	521.636	0.46	522.096	0	PA_with_intermediate	test	ward_and_allport	89	45.0	0.46	to_hand	poldrack-single-stim	s637	False
0.1	522.097	0.44	522.537	0	PA_with_intermediate	test	ward_and_allport	82	45.0	0.44	to_board	poldrack-single-stim	s637	False
1.0	522.549	2.952	522.548	0	PA_with_intermediate	test	ward_and_allport	-1	45.0	n/a	feedback	poldrack-single-stim	s637	False
2.155	525.512	2.155	527.667	1	PA_with_intermediate	test	ward_and_allport	82	46.0	2.155	to_hand	poldrack-single-stim	s637	False
0.1	527.669	0.813	528.482	0	PA_with_intermediate	test	ward_and_allport	89	46.0	0.813	to_board	poldrack-single-stim	s637	False
0.1	528.493	0.694	529.187	0	PA_with_intermediate	test	ward_and_allport	82	46.0	0.694	to_hand	poldrack-single-stim	s637	False
0.1	529.188	0.601	529.789	0	PA_with_intermediate	test	ward_and_allport	71	46.0	0.601	to_board	poldrack-single-stim	s637	False
0.1	529.803	0.403	530.206	0	PA_with_intermediate	test	ward_and_allport	89	46.0	0.403	to_hand	poldrack-single-stim	s637	False
0.1	530.207	0.599	530.806	0	PA_with_intermediate	test	ward_and_allport	82	46.0	0.599	to_board	poldrack-single-stim	s637	False
1.0	530.818	2.136	530.817	0	PA_with_intermediate	test	ward_and_allport	-1	46.0	n/a	feedback	poldrack-single-stim	s637	False
2.067	532.964	2.067	535.031	1	PA_without_intermediate	test	ward_and_allport	82	47.0	2.067	to_hand	poldrack-single-stim	s637	False
0.1	535.032	0.492	535.524	0	PA_without_intermediate	test	ward_and_allport	89	47.0	0.492	to_board	poldrack-single-stim	s637	False
0.1	535.533	0.667	536.2	0	PA_without_intermediate	test	ward_and_allport	82	47.0	0.667	to_hand	poldrack-single-stim	s637	False
0.1	536.201	0.573	536.774	0	PA_without_intermediate	test	ward_and_allport	89	47.0	0.573	to_board	poldrack-single-stim	s637	False
0.1	536.785	0.711	537.496	0	PA_without_intermediate	test	ward_and_allport	82	47.0	0.711	to_hand	poldrack-single-stim	s637	False
0.1	537.496	0.466	537.962	0	PA_without_intermediate	test	ward_and_allport	71	47.0	0.466	to_board	poldrack-single-stim	s637	False
1.0	537.975	2.68	537.974	0	PA_without_intermediate	test	ward_and_allport	-1	47.0	n/a	feedback	poldrack-single-stim	s637	False
