onset	duration	movement_onset	CTI	block_duration	correct	correct_response	cue	cue_switch	experiment_exp_id	key_press	response_time	stim_color	stim_number	switch_type	task	task_switch	trial_id	trial_type	worker_id	first_trial_of_block	junk
4.414	1.0	5.886	0.9	2.272	True	89.0	High-Low	stay	twobytwo	89.0	0.572	blue	1.0	cue_stay	magnitude	stay	stim	poldrack-single-stim	s638	1	False
7.592	1.0	9.15	0.9	2.136	True	71.0	Color	n/a	twobytwo	71.0	0.658	blue	8.0	task_switch	color	switch	stim	poldrack-single-stim	s638	0	False
9.833	1.0	10.674	0.1	2.0	False	71.0	Orange-Blue	switch	twobytwo	89.0	0.741	blue	4.0	cue_switch	color	stay	stim	poldrack-single-stim	s638	0	False
11.939	1.0	12.823	0.1	2.0	True	71.0	High-Low	n/a	twobytwo	71.0	0.784	orange	9.0	task_switch	magnitude	switch	stim	poldrack-single-stim	s638	0	False
14.844	1.0	16.282	0.9	2.136	True	71.0	Color	n/a	twobytwo	71.0	0.538	blue	2.0	task_switch	color	switch	stim	poldrack-single-stim	s638	0	False
17.085	1.0	17.932	0.1	2.0	True	89.0	Magnitude	n/a	twobytwo	89.0	0.747	orange	2.0	task_switch	magnitude	switch	stim	poldrack-single-stim	s638	0	False
19.991	1.0	21.461	0.9	2.136	True	89.0	Orange-Blue	n/a	twobytwo	89.0	0.57	orange	1.0	task_switch	color	switch	stim	poldrack-single-stim	s638	0	False
23.031	1.0	24.305	0.9	2.408	True	71.0	Orange-Blue	stay	twobytwo	71.0	0.374	blue	9.0	cue_stay	color	stay	stim	poldrack-single-stim	s638	0	False
26.344	1.0	27.748	0.9	2.136	True	89.0	Magnitude	n/a	twobytwo	89.0	0.504	orange	3.0	task_switch	magnitude	switch	stim	poldrack-single-stim	s638	0	False
28.584	1.0	29.202	0.1	2.0	True	71.0	Orange-Blue	n/a	twobytwo	71.0	0.518	blue	8.0	task_switch	color	switch	stim	poldrack-single-stim	s638	0	False
30.69	1.0	31.273	0.1	2.136	True	89.0	High-Low	n/a	twobytwo	89.0	0.483	orange	3.0	task_switch	magnitude	switch	stim	poldrack-single-stim	s638	0	False
33.732	1.0	35.118	0.9	2.272	True	89.0	High-Low	stay	twobytwo	89.0	0.486	blue	1.0	cue_stay	magnitude	stay	stim	poldrack-single-stim	s638	0	False
36.909	1.0	38.282	0.9	2.0	True	89.0	Orange-Blue	n/a	twobytwo	89.0	0.473	orange	8.0	task_switch	color	switch	stim	poldrack-single-stim	s638	0	False
39.814	1.0	41.193	0.9	2.408	True	89.0	Magnitude	n/a	twobytwo	89.0	0.479	blue	1.0	task_switch	magnitude	switch	stim	poldrack-single-stim	s638	0	False
42.327	1.0	43.108	0.1	2.0	True	89.0	High-Low	switch	twobytwo	89.0	0.681	orange	3.0	cue_switch	magnitude	stay	stim	poldrack-single-stim	s638	0	False
45.231	1.0	46.518	0.9	2.136	True	89.0	Orange-Blue	n/a	twobytwo	89.0	0.387	orange	9.0	task_switch	color	switch	stim	poldrack-single-stim	s638	0	False
48.273	1.0	49.631	0.9	2.408	True	89.0	Magnitude	n/a	twobytwo	89.0	0.458	blue	2.0	task_switch	magnitude	switch	stim	poldrack-single-stim	s638	0	False
51.585	1.0	52.951	0.9	2.136	True	89.0	Orange-Blue	n/a	twobytwo	89.0	0.466	orange	3.0	task_switch	color	switch	stim	poldrack-single-stim	s638	0	False
53.825	1.0	54.495	0.1	2.408	True	71.0	Magnitude	n/a	twobytwo	71.0	0.57	blue	8.0	task_switch	magnitude	switch	stim	poldrack-single-stim	s638	0	False
56.339	1.0	56.904	0.1	2.136	True	89.0	Orange-Blue	n/a	twobytwo	89.0	0.465	orange	4.0	task_switch	color	switch	stim	poldrack-single-stim	s638	0	False
58.58	1.0	59.197	0.1	2.0	False	71.0	Color	switch	twobytwo	89.0	0.517	blue	1.0	cue_switch	color	stay	stim	poldrack-single-stim	s638	0	False
60.685	1.0	61.424	0.1	2.272	True	71.0	Color	stay	twobytwo	71.0	0.639	blue	6.0	cue_stay	color	stay	stim	poldrack-single-stim	s638	0	False
63.062	1.0	63.736	0.1	2.0	True	89.0	High-Low	n/a	twobytwo	89.0	0.574	orange	2.0	task_switch	magnitude	switch	stim	poldrack-single-stim	s638	0	False
65.168	1.0	65.781	0.1	2.272	True	71.0	Color	n/a	twobytwo	71.0	0.513	blue	8.0	task_switch	color	switch	stim	poldrack-single-stim	s638	0	False
67.545	1.0	68.293	0.1	2.272	True	89.0	Orange-Blue	switch	twobytwo	89.0	0.648	orange	8.0	cue_switch	color	stay	stim	poldrack-single-stim	s638	0	False
69.922	1.0	70.801	0.1	2.952	False	71.0	Color	switch	twobytwo	89.0	0.779	blue	3.0	cue_switch	color	stay	stim	poldrack-single-stim	s638	0	False
73.78	1.0	75.095	0.9	2.68	True	89.0	Color	stay	twobytwo	89.0	0.415	orange	1.0	cue_stay	color	stay	stim	poldrack-single-stim	s638	0	False
77.365	1.0	78.706	0.9	2.136	True	71.0	Color	stay	twobytwo	71.0	0.441	blue	1.0	cue_stay	color	stay	stim	poldrack-single-stim	s638	0	False
79.608	1.0	80.434	0.1	2.272	True	89.0	Color	stay	twobytwo	89.0	0.726	orange	6.0	cue_stay	color	stay	stim	poldrack-single-stim	s638	0	False
81.985	1.0	82.691	0.1	2.272	True	89.0	Orange-Blue	switch	twobytwo	89.0	0.606	orange	4.0	cue_switch	color	stay	stim	poldrack-single-stim	s638	0	False
85.162	1.0	86.63	0.9	2.136	True	71.0	Magnitude	n/a	twobytwo	71.0	0.568	blue	8.0	task_switch	magnitude	switch	stim	poldrack-single-stim	s638	0	False
88.203	1.0	89.607	0.9	2.408	True	89.0	High-Low	switch	twobytwo	89.0	0.504	orange	4.0	cue_switch	magnitude	stay	stim	poldrack-single-stim	s638	0	False
91.516	1.0	92.887	0.9	2.136	True	71.0	Magnitude	switch	twobytwo	71.0	0.471	orange	7.0	cue_switch	magnitude	stay	stim	poldrack-single-stim	s638	0	False
94.558	1.0	95.933	0.9	2.136	True	89.0	High-Low	switch	twobytwo	89.0	0.475	blue	2.0	cue_switch	magnitude	stay	stim	poldrack-single-stim	s638	0	False
96.799	1.0	97.907	0.1	2.0	False	71.0	Magnitude	switch	twobytwo	89.0	1.008	orange	7.0	cue_switch	magnitude	stay	stim	poldrack-single-stim	s638	0	False
99.703	1.0	101.693	0.9	2.0	True	89.0	Magnitude	stay	twobytwo	89.0	1.09	orange	4.0	cue_stay	magnitude	stay	stim	poldrack-single-stim	s638	0	False
101.807	1.0	102.665	0.1	2.0	True	89.0	High-Low	switch	twobytwo	89.0	0.758	orange	2.0	cue_switch	magnitude	stay	stim	poldrack-single-stim	s638	0	False
104.71	1.0	106.045	0.9	2.0	True	71.0	Magnitude	switch	twobytwo	71.0	0.435	orange	7.0	cue_switch	magnitude	stay	stim	poldrack-single-stim	s638	0	False
107.615	1.0	109.501	0.9	2.0	False	71.0	High-Low	switch	twobytwo	89.0	0.986	orange	9.0	cue_switch	magnitude	stay	stim	poldrack-single-stim	s638	0	False
110.519	1.0	112.016	0.9	2.272	True	71.0	Magnitude	switch	twobytwo	71.0	0.597	orange	8.0	cue_switch	magnitude	stay	stim	poldrack-single-stim	s638	0	False
112.896	1.0	113.483	0.1	2.408	True	71.0	High-Low	switch	twobytwo	71.0	0.487	orange	9.0	cue_switch	magnitude	stay	stim	poldrack-single-stim	s638	0	False
115.409	1.0	116.165	0.1	2.0	True	89.0	High-Low	stay	twobytwo	89.0	0.656	orange	1.0	cue_stay	magnitude	stay	stim	poldrack-single-stim	s638	0	False
117.514	1.0	118.121	0.1	2.136	True	71.0	Color	n/a	twobytwo	71.0	0.507	blue	9.0	task_switch	color	switch	stim	poldrack-single-stim	s638	0	False
119.756	1.0	120.4	0.1	2.0	True	89.0	Orange-Blue	switch	twobytwo	89.0	0.544	orange	1.0	cue_switch	color	stay	stim	poldrack-single-stim	s638	0	False
122.661	1.0	123.982	0.9	2.136	True	71.0	Magnitude	n/a	twobytwo	71.0	0.421	orange	7.0	task_switch	magnitude	switch	stim	poldrack-single-stim	s638	0	False
124.902	1.0	125.753	0.1	2.544	True	71.0	Orange-Blue	n/a	twobytwo	71.0	0.751	blue	6.0	task_switch	color	switch	stim	poldrack-single-stim	s638	0	False
128.351	1.0	129.644	0.9	2.68	True	89.0	Magnitude	n/a	twobytwo	89.0	0.393	orange	1.0	task_switch	magnitude	switch	stim	poldrack-single-stim	s638	0	False
131.937	1.0	133.21	0.9	3.088	True	71.0	High-Low	switch	twobytwo	71.0	0.373	orange	8.0	cue_switch	magnitude	stay	stim	poldrack-single-stim	s638	0	False
135.93	1.0	137.398	0.9	2.136	True	89.0	Magnitude	switch	twobytwo	89.0	0.568	orange	4.0	cue_switch	magnitude	stay	stim	poldrack-single-stim	s638	0	False
138.971	1.0	140.247	0.9	2.544	True	71.0	High-Low	switch	twobytwo	71.0	0.376	blue	9.0	cue_switch	magnitude	stay	stim	poldrack-single-stim	s638	0	False
142.42	1.0	143.732	0.9	2.0	True	89.0	Magnitude	switch	twobytwo	89.0	0.412	blue	2.0	cue_switch	magnitude	stay	stim	poldrack-single-stim	s638	0	False
145.326	1.0	146.935	0.9	2.136	True	71.0	Orange-Blue	n/a	twobytwo	71.0	0.709	blue	6.0	task_switch	color	switch	stim	poldrack-single-stim	s638	0	False
147.567	1.0	148.178	0.1	2.0	True	89.0	High-Low	n/a	twobytwo	89.0	0.511	orange	1.0	task_switch	magnitude	switch	stim	poldrack-single-stim	s638	0	False
149.671	1.0	150.35	0.1	2.408	False	89.0	Color	n/a	twobytwo	71.0	0.579	orange	8.0	task_switch	color	switch	stim	poldrack-single-stim	s638	0	False
152.985	1.0	154.34	0.9	2.0	True	71.0	Orange-Blue	switch	twobytwo	71.0	0.455	blue	3.0	cue_switch	color	stay	stim	poldrack-single-stim	s638	0	False
155.889	1.0	157.585	0.9	2.0	True	71.0	Orange-Blue	stay	twobytwo	71.0	0.796	blue	7.0	cue_stay	color	stay	stim	poldrack-single-stim	s638	0	False
157.995	1.0	158.904	0.1	2.0	True	71.0	Magnitude	n/a	twobytwo	71.0	0.809	orange	9.0	task_switch	magnitude	switch	stim	poldrack-single-stim	s638	0	False
160.899	1.0	162.385	0.9	2.68	True	71.0	Magnitude	stay	twobytwo	71.0	0.586	blue	6.0	cue_stay	magnitude	stay	stim	poldrack-single-stim	s638	0	False
163.684	1.0	164.817	0.1	2.272	True	71.0	High-Low	switch	twobytwo	71.0	1.033	orange	6.0	cue_switch	magnitude	stay	stim	poldrack-single-stim	s638	0	False
166.061	1.0	166.719	0.1	2.408	True	71.0	High-Low	stay	twobytwo	71.0	0.558	blue	9.0	cue_stay	magnitude	stay	stim	poldrack-single-stim	s638	0	False
168.574	1.0	169.169	0.1	3.224	True	71.0	High-Low	stay	twobytwo	71.0	0.495	orange	8.0	cue_stay	magnitude	stay	stim	poldrack-single-stim	s638	0	False
172.704	1.0	174.016	0.9	2.408	True	89.0	Orange-Blue	n/a	twobytwo	89.0	0.412	orange	4.0	task_switch	color	switch	stim	poldrack-single-stim	s638	0	False
176.017	1.0	177.414	0.9	2.816	True	89.0	High-Low	n/a	twobytwo	89.0	0.497	blue	2.0	task_switch	magnitude	switch	stim	poldrack-single-stim	s638	0	False
179.738	1.0	181.0	0.9	2.408	True	71.0	Color	n/a	twobytwo	71.0	0.362	blue	2.0	task_switch	color	switch	stim	poldrack-single-stim	s638	0	False
182.251	1.0	183.028	0.1	2.136	True	71.0	High-Low	n/a	twobytwo	71.0	0.677	blue	7.0	task_switch	magnitude	switch	stim	poldrack-single-stim	s638	0	False
184.493	1.0	185.016	0.1	2.136	True	71.0	High-Low	stay	twobytwo	71.0	0.423	blue	6.0	cue_stay	magnitude	stay	stim	poldrack-single-stim	s638	0	False
187.533	1.0	188.915	0.9	2.0	True	89.0	Magnitude	switch	twobytwo	89.0	0.482	orange	1.0	cue_switch	magnitude	stay	stim	poldrack-single-stim	s638	0	False
189.637	1.0	190.212	0.1	2.0	False	89.0	High-Low	switch	twobytwo	71.0	0.475	blue	3.0	cue_switch	magnitude	stay	stim	poldrack-single-stim	s638	0	False
191.743	1.0	192.448	0.1	2.272	True	89.0	Color	n/a	twobytwo	89.0	0.605	orange	4.0	task_switch	color	switch	stim	poldrack-single-stim	s638	0	False
194.12	1.0	194.69	0.1	2.408	True	89.0	Magnitude	n/a	twobytwo	89.0	0.47	orange	2.0	task_switch	magnitude	switch	stim	poldrack-single-stim	s638	0	False
197.433	1.0	198.88	0.9	2.0	True	89.0	Orange-Blue	n/a	twobytwo	89.0	0.547	orange	8.0	task_switch	color	switch	stim	poldrack-single-stim	s638	0	False
200.339	1.0	201.734	0.9	2.136	True	89.0	Color	switch	twobytwo	89.0	0.495	orange	7.0	cue_switch	color	stay	stim	poldrack-single-stim	s638	0	False
203.379	1.0	204.697	0.9	2.0	False	71.0	High-Low	n/a	twobytwo	89.0	0.418	orange	7.0	task_switch	magnitude	switch	stim	poldrack-single-stim	s638	0	False
206.284	1.0	208.145	0.9	2.408	True	71.0	Orange-Blue	n/a	twobytwo	71.0	0.961	blue	4.0	task_switch	color	switch	stim	poldrack-single-stim	s638	0	False
208.797	1.0	209.79	0.1	2.272	True	89.0	Color	switch	twobytwo	89.0	0.893	orange	7.0	cue_switch	color	stay	stim	poldrack-single-stim	s638	0	False
211.973	1.0	213.543	0.9	2.0	True	71.0	High-Low	n/a	twobytwo	71.0	0.67	blue	6.0	task_switch	magnitude	switch	stim	poldrack-single-stim	s638	0	False
214.879	1.0	216.257	0.9	2.272	True	71.0	Magnitude	switch	twobytwo	71.0	0.478	blue	7.0	cue_switch	magnitude	stay	stim	poldrack-single-stim	s638	0	False
217.255	1.0	217.89	0.1	2.0	True	71.0	Orange-Blue	n/a	twobytwo	71.0	0.535	blue	6.0	task_switch	color	switch	stim	poldrack-single-stim	s638	0	False
220.159	1.0	221.7	0.9	2.0	True	71.0	High-Low	n/a	twobytwo	71.0	0.641	orange	6.0	task_switch	magnitude	switch	stim	poldrack-single-stim	s638	0	False
223.063	1.0	224.491	0.9	2.272	True	71.0	High-Low	stay	twobytwo	71.0	0.528	blue	9.0	cue_stay	magnitude	stay	stim	poldrack-single-stim	s638	0	False
239.75	1.0	241.485	0.9	2.136	False	71.0	Orange-Blue	stay	twobytwo	89.0	0.835	blue	1.0	cue_stay	color	stay	stim	poldrack-single-stim	s638	1	False
242.79	1.0	244.396	0.9	2.0	True	71.0	High-Low	n/a	twobytwo	71.0	0.706	blue	8.0	task_switch	magnitude	switch	stim	poldrack-single-stim	s638	0	False
244.895	1.0	246.508	0.1	2.0	True	89.0	Magnitude	switch	twobytwo	89.0	1.513	blue	4.0	cue_switch	magnitude	stay	stim	poldrack-single-stim	s638	0	False
247.0	1.0	248.278	0.1	2.0	True	89.0	Orange-Blue	n/a	twobytwo	89.0	1.178	orange	9.0	task_switch	color	switch	stim	poldrack-single-stim	s638	0	False
249.904	1.0	251.429	0.9	2.0	True	89.0	High-Low	n/a	twobytwo	89.0	0.625	blue	2.0	task_switch	magnitude	switch	stim	poldrack-single-stim	s638	0	False
252.009	1.0	252.74	0.1	2.0	True	89.0	Color	n/a	twobytwo	89.0	0.631	orange	2.0	task_switch	color	switch	stim	poldrack-single-stim	s638	0	False
254.913	1.0	256.25	0.9	2.136	True	89.0	Magnitude	n/a	twobytwo	89.0	0.437	orange	1.0	task_switch	magnitude	switch	stim	poldrack-single-stim	s638	0	False
257.954	1.0	259.369	0.9	2.0	True	71.0	Magnitude	stay	twobytwo	71.0	0.515	blue	9.0	cue_stay	magnitude	stay	stim	poldrack-single-stim	s638	0	False
260.859	1.0	262.416	0.9	2.0	True	89.0	Color	n/a	twobytwo	89.0	0.657	orange	3.0	task_switch	color	switch	stim	poldrack-single-stim	s638	0	False
262.965	1.0	263.639	0.1	2.136	True	71.0	Magnitude	n/a	twobytwo	71.0	0.574	blue	8.0	task_switch	magnitude	switch	stim	poldrack-single-stim	s638	0	False
265.204	1.0	265.806	0.1	2.0	True	89.0	Color	n/a	twobytwo	89.0	0.502	orange	3.0	task_switch	color	switch	stim	poldrack-single-stim	s638	0	False
268.109	1.0	269.369	0.9	2.136	True	71.0	Color	stay	twobytwo	71.0	0.36	blue	1.0	cue_stay	color	stay	stim	poldrack-single-stim	s638	0	False
271.15	1.0	272.428	0.9	2.68	True	71.0	High-Low	n/a	twobytwo	71.0	0.378	orange	8.0	task_switch	magnitude	switch	stim	poldrack-single-stim	s638	0	False
274.736	1.0	276.161	0.9	2.272	False	71.0	Orange-Blue	n/a	twobytwo	89.0	0.525	blue	1.0	task_switch	color	switch	stim	poldrack-single-stim	s638	0	False
277.113	1.0	277.904	0.1	2.136	True	89.0	Color	switch	twobytwo	89.0	0.691	orange	3.0	cue_switch	color	stay	stim	poldrack-single-stim	s638	0	False
280.154	1.0	281.564	0.9	2.0	True	71.0	Magnitude	n/a	twobytwo	71.0	0.51	orange	9.0	task_switch	magnitude	switch	stim	poldrack-single-stim	s638	0	False
283.06	1.0	284.712	0.9	2.136	True	71.0	Color	n/a	twobytwo	71.0	0.752	blue	2.0	task_switch	color	switch	stim	poldrack-single-stim	s638	0	False
286.101	1.0	287.707	0.9	2.68	True	89.0	High-Low	n/a	twobytwo	89.0	0.706	orange	3.0	task_switch	magnitude	switch	stim	poldrack-single-stim	s638	0	False
288.886	1.0	289.491	0.1	2.272	True	71.0	Color	n/a	twobytwo	71.0	0.505	blue	8.0	task_switch	color	switch	stim	poldrack-single-stim	s638	0	False
291.264	1.0	291.869	0.1	2.0	True	89.0	High-Low	n/a	twobytwo	89.0	0.505	orange	4.0	task_switch	magnitude	switch	stim	poldrack-single-stim	s638	0	False
293.369	1.0	293.991	0.1	2.0	True	89.0	Magnitude	switch	twobytwo	89.0	0.522	blue	1.0	cue_switch	magnitude	stay	stim	poldrack-single-stim	s638	0	False
295.474	1.0	296.323	0.1	2.136	True	71.0	Magnitude	stay	twobytwo	71.0	0.749	blue	6.0	cue_stay	magnitude	stay	stim	poldrack-single-stim	s638	0	False
297.714	1.0	298.375	0.1	2.0	True	89.0	Color	n/a	twobytwo	89.0	0.561	orange	2.0	task_switch	color	switch	stim	poldrack-single-stim	s638	0	False
299.82	1.0	300.44	0.1	2.0	True	71.0	High-Low	n/a	twobytwo	71.0	0.52	blue	8.0	task_switch	magnitude	switch	stim	poldrack-single-stim	s638	0	False
301.924	1.0	302.838	0.1	2.0	True	71.0	Magnitude	switch	twobytwo	71.0	0.814	orange	8.0	cue_switch	magnitude	stay	stim	poldrack-single-stim	s638	0	False
304.029	1.0	304.695	0.1	2.272	True	89.0	High-Low	switch	twobytwo	89.0	0.566	blue	3.0	cue_switch	magnitude	stay	stim	poldrack-single-stim	s638	0	False
307.205	1.0	308.499	0.9	2.408	True	89.0	High-Low	stay	twobytwo	89.0	0.394	orange	1.0	cue_stay	magnitude	stay	stim	poldrack-single-stim	s638	0	False
310.517	1.0	312.186	0.9	2.0	True	89.0	High-Low	stay	twobytwo	89.0	0.769	blue	1.0	cue_stay	magnitude	stay	stim	poldrack-single-stim	s638	0	False
312.621	1.0	313.4	0.1	2.0	True	71.0	High-Low	stay	twobytwo	71.0	0.679	orange	6.0	cue_stay	magnitude	stay	stim	poldrack-single-stim	s638	0	False
314.725	1.0	315.367	0.1	2.0	True	89.0	Magnitude	switch	twobytwo	89.0	0.542	orange	4.0	cue_switch	magnitude	stay	stim	poldrack-single-stim	s638	0	False
317.63	1.0	318.868	0.9	2.272	True	71.0	Orange-Blue	n/a	twobytwo	71.0	0.338	blue	8.0	task_switch	color	switch	stim	poldrack-single-stim	s638	0	False
320.807	1.0	322.279	0.9	2.136	True	89.0	Color	switch	twobytwo	89.0	0.572	orange	4.0	cue_switch	color	stay	stim	poldrack-single-stim	s638	0	False
323.849	1.0	325.352	0.9	2.0	True	89.0	Orange-Blue	switch	twobytwo	89.0	0.603	orange	7.0	cue_switch	color	stay	stim	poldrack-single-stim	s638	0	False
326.753	1.0	327.986	0.9	2.544	True	71.0	Color	switch	twobytwo	71.0	0.333	blue	2.0	cue_switch	color	stay	stim	poldrack-single-stim	s638	0	False
329.403	1.0	330.182	0.1	2.272	True	89.0	Orange-Blue	switch	twobytwo	89.0	0.679	orange	7.0	cue_switch	color	stay	stim	poldrack-single-stim	s638	0	False
332.58	1.0	333.907	0.9	2.272	True	89.0	Orange-Blue	stay	twobytwo	89.0	0.427	orange	4.0	cue_stay	color	stay	stim	poldrack-single-stim	s638	0	False
334.956	1.0	335.595	0.1	2.0	True	89.0	Color	switch	twobytwo	89.0	0.539	orange	2.0	cue_switch	color	stay	stim	poldrack-single-stim	s638	0	False
337.861	1.0	339.293	0.9	2.0	True	89.0	Orange-Blue	switch	twobytwo	89.0	0.532	orange	7.0	cue_switch	color	stay	stim	poldrack-single-stim	s638	0	False
340.766	1.0	342.136	0.9	2.136	True	89.0	Color	switch	twobytwo	89.0	0.47	orange	9.0	cue_switch	color	stay	stim	poldrack-single-stim	s638	0	False
343.808	1.0	345.119	0.9	2.0	True	89.0	Orange-Blue	switch	twobytwo	89.0	0.411	orange	8.0	cue_switch	color	stay	stim	poldrack-single-stim	s638	0	False
345.912	1.0	346.583	0.1	2.136	True	89.0	Color	switch	twobytwo	89.0	0.571	orange	9.0	cue_switch	color	stay	stim	poldrack-single-stim	s638	0	False
348.153	1.0	348.662	0.1	2.272	True	89.0	Color	stay	twobytwo	89.0	0.409	orange	1.0	cue_stay	color	stay	stim	poldrack-single-stim	s638	0	False
350.53	1.0	351.165	0.1	2.136	True	71.0	High-Low	n/a	twobytwo	71.0	0.535	blue	9.0	task_switch	magnitude	switch	stim	poldrack-single-stim	s638	0	False
352.771	1.0	353.424	0.1	2.272	True	89.0	Magnitude	switch	twobytwo	89.0	0.553	orange	1.0	cue_switch	magnitude	stay	stim	poldrack-single-stim	s638	0	False
355.949	1.0	357.305	0.9	2.0	True	89.0	Orange-Blue	n/a	twobytwo	89.0	0.456	orange	7.0	task_switch	color	switch	stim	poldrack-single-stim	s638	0	False
358.053	1.0	358.687	0.1	2.816	True	71.0	High-Low	n/a	twobytwo	71.0	0.534	blue	6.0	task_switch	magnitude	switch	stim	poldrack-single-stim	s638	0	False
361.774	1.0	363.131	0.9	2.408	True	89.0	Orange-Blue	n/a	twobytwo	89.0	0.457	orange	1.0	task_switch	color	switch	stim	poldrack-single-stim	s638	0	False
365.087	1.0	366.704	0.9	2.0	True	89.0	Color	switch	twobytwo	89.0	0.717	orange	8.0	cue_switch	color	stay	stim	poldrack-single-stim	s638	0	False
367.992	1.0	369.433	0.9	2.544	True	89.0	Orange-Blue	switch	twobytwo	89.0	0.541	orange	4.0	cue_switch	color	stay	stim	poldrack-single-stim	s638	0	False
371.441	1.0	372.75	0.9	2.136	True	71.0	Color	switch	twobytwo	71.0	0.409	blue	9.0	cue_switch	color	stay	stim	poldrack-single-stim	s638	0	False
374.483	1.0	376.012	0.9	2.0	True	71.0	Orange-Blue	switch	twobytwo	71.0	0.629	blue	2.0	cue_switch	color	stay	stim	poldrack-single-stim	s638	0	False
377.389	1.0	378.883	0.9	2.0	True	71.0	High-Low	n/a	twobytwo	71.0	0.594	blue	6.0	task_switch	magnitude	switch	stim	poldrack-single-stim	s638	0	False
379.494	1.0	380.115	0.1	2.136	True	89.0	Color	n/a	twobytwo	89.0	0.521	orange	1.0	task_switch	color	switch	stim	poldrack-single-stim	s638	0	False
381.735	1.0	382.458	0.1	2.136	False	71.0	High-Low	n/a	twobytwo	89.0	0.623	orange	8.0	task_switch	magnitude	switch	stim	poldrack-single-stim	s638	0	False
384.776	1.0	386.316	0.9	2.272	False	89.0	Magnitude	switch	twobytwo	71.0	0.64	blue	3.0	cue_switch	magnitude	stay	stim	poldrack-single-stim	s638	0	False
387.954	1.0	389.417	0.9	3.224	True	71.0	Magnitude	stay	twobytwo	71.0	0.563	blue	7.0	cue_stay	magnitude	stay	stim	poldrack-single-stim	s638	0	False
391.282	1.0	392.107	0.1	2.0	True	89.0	Color	n/a	twobytwo	89.0	0.725	orange	9.0	task_switch	color	switch	stim	poldrack-single-stim	s638	0	False
394.186	1.0	395.513	0.9	2.0	True	71.0	Color	stay	twobytwo	71.0	0.427	blue	6.0	cue_stay	color	stay	stim	poldrack-single-stim	s638	0	False
396.292	1.0	396.948	0.1	2.272	True	89.0	Orange-Blue	switch	twobytwo	89.0	0.556	orange	6.0	cue_switch	color	stay	stim	poldrack-single-stim	s638	0	False
398.668	1.0	399.446	0.1	2.136	True	71.0	Orange-Blue	stay	twobytwo	71.0	0.678	blue	9.0	cue_stay	color	stay	stim	poldrack-single-stim	s638	0	False
400.909	1.0	401.722	0.1	2.0	True	89.0	Orange-Blue	stay	twobytwo	89.0	0.713	orange	8.0	cue_stay	color	stay	stim	poldrack-single-stim	s638	0	False
403.814	1.0	405.397	0.9	2.0	True	89.0	Magnitude	n/a	twobytwo	89.0	0.683	orange	4.0	task_switch	magnitude	switch	stim	poldrack-single-stim	s638	0	False
406.719	1.0	408.011	0.9	2.0	True	71.0	Orange-Blue	n/a	twobytwo	71.0	0.392	blue	2.0	task_switch	color	switch	stim	poldrack-single-stim	s638	0	False
409.625	1.0	411.009	0.9	2.68	True	89.0	Magnitude	n/a	twobytwo	89.0	0.484	blue	2.0	task_switch	magnitude	switch	stim	poldrack-single-stim	s638	0	False
412.41	1.0	413.248	0.1	2.0	True	71.0	Color	n/a	twobytwo	71.0	0.738	blue	7.0	task_switch	color	switch	stim	poldrack-single-stim	s638	0	False
414.515	1.0	415.205	0.1	2.272	True	71.0	Color	stay	twobytwo	71.0	0.59	blue	6.0	cue_stay	color	stay	stim	poldrack-single-stim	s638	0	False
417.692	1.0	419.024	0.9	2.0	True	89.0	Orange-Blue	switch	twobytwo	89.0	0.432	orange	1.0	cue_switch	color	stay	stim	poldrack-single-stim	s638	0	False
419.797	1.0	420.619	0.1	2.272	False	71.0	Color	switch	twobytwo	89.0	0.722	blue	3.0	cue_switch	color	stay	stim	poldrack-single-stim	s638	0	False
422.173	1.0	423.249	0.1	2.952	True	89.0	Magnitude	n/a	twobytwo	89.0	0.976	orange	4.0	task_switch	magnitude	switch	stim	poldrack-single-stim	s638	0	False
425.23	1.0	426.03	0.1	2.0	True	89.0	Color	n/a	twobytwo	89.0	0.7	orange	2.0	task_switch	color	switch	stim	poldrack-single-stim	s638	0	False
428.134	1.0	429.44	0.9	2.0	True	71.0	Magnitude	n/a	twobytwo	71.0	0.406	orange	8.0	task_switch	magnitude	switch	stim	poldrack-single-stim	s638	0	False
431.04	1.0	432.535	0.9	2.0	True	71.0	High-Low	switch	twobytwo	71.0	0.595	orange	7.0	cue_switch	magnitude	stay	stim	poldrack-single-stim	s638	0	False
433.945	1.0	435.763	0.9	2.0	True	89.0	Orange-Blue	n/a	twobytwo	89.0	0.918	orange	7.0	task_switch	color	switch	stim	poldrack-single-stim	s638	0	False
436.849	1.0	438.547	0.9	2.136	True	89.0	High-Low	n/a	twobytwo	89.0	0.798	blue	4.0	task_switch	magnitude	switch	stim	poldrack-single-stim	s638	0	False
439.088	1.0	440.117	0.1	2.0	True	71.0	Magnitude	switch	twobytwo	71.0	0.929	orange	7.0	cue_switch	magnitude	stay	stim	poldrack-single-stim	s638	0	False
441.994	1.0	443.482	0.9	2.0	True	71.0	Color	n/a	twobytwo	71.0	0.588	blue	6.0	task_switch	color	switch	stim	poldrack-single-stim	s638	0	False
444.899	1.0	446.563	0.9	2.0	True	71.0	Orange-Blue	switch	twobytwo	71.0	0.764	blue	7.0	cue_switch	color	stay	stim	poldrack-single-stim	s638	0	False
447.005	1.0	447.818	0.1	2.272	True	71.0	High-Low	n/a	twobytwo	71.0	0.713	blue	6.0	task_switch	magnitude	switch	stim	poldrack-single-stim	s638	0	False
450.181	1.0	451.725	0.9	2.136	True	89.0	Orange-Blue	n/a	twobytwo	89.0	0.644	orange	6.0	task_switch	color	switch	stim	poldrack-single-stim	s638	0	False
453.223	1.0	454.775	0.9	2.0	True	71.0	Orange-Blue	stay	twobytwo	71.0	0.652	blue	9.0	cue_stay	color	stay	stim	poldrack-single-stim	s638	0	False
469.637	1.0	471.401	0.9	2.136	True	71.0	Orange-Blue	stay	twobytwo	71.0	0.864	blue	1.0	cue_stay	color	stay	stim	poldrack-single-stim	s638	1	False
472.677	1.0	474.169	0.9	2.816	True	71.0	High-Low	n/a	twobytwo	71.0	0.592	blue	8.0	task_switch	magnitude	switch	stim	poldrack-single-stim	s638	0	False
475.599	1.0	476.366	0.1	2.408	True	89.0	Magnitude	switch	twobytwo	89.0	0.667	blue	4.0	cue_switch	magnitude	stay	stim	poldrack-single-stim	s638	0	False
478.112	1.0	478.94	0.1	2.0	True	89.0	Orange-Blue	n/a	twobytwo	89.0	0.728	orange	9.0	task_switch	color	switch	stim	poldrack-single-stim	s638	0	False
481.017	1.0	482.479	0.9	2.136	True	89.0	Magnitude	n/a	twobytwo	89.0	0.562	blue	2.0	task_switch	magnitude	switch	stim	poldrack-single-stim	s638	0	False
483.258	1.0	483.864	0.1	2.136	True	89.0	Orange-Blue	n/a	twobytwo	89.0	0.506	orange	2.0	task_switch	color	switch	stim	poldrack-single-stim	s638	0	False
486.299	1.0	487.612	0.9	2.136	True	89.0	Magnitude	n/a	twobytwo	89.0	0.413	orange	1.0	task_switch	magnitude	switch	stim	poldrack-single-stim	s638	0	False
489.341	1.0	490.688	0.9	2.544	True	71.0	Magnitude	stay	twobytwo	71.0	0.447	blue	9.0	cue_stay	magnitude	stay	stim	poldrack-single-stim	s638	0	False
492.79	1.0	494.133	0.9	2.136	True	89.0	Orange-Blue	n/a	twobytwo	89.0	0.443	orange	3.0	task_switch	color	switch	stim	poldrack-single-stim	s638	0	False
495.031	1.0	495.657	0.1	2.0	True	71.0	High-Low	n/a	twobytwo	71.0	0.526	blue	8.0	task_switch	magnitude	switch	stim	poldrack-single-stim	s638	0	False
497.136	1.0	497.784	0.1	2.0	True	89.0	Orange-Blue	n/a	twobytwo	89.0	0.548	orange	3.0	task_switch	color	switch	stim	poldrack-single-stim	s638	0	False
500.043	1.0	501.359	0.9	2.0	True	71.0	Orange-Blue	stay	twobytwo	71.0	0.416	blue	1.0	cue_stay	color	stay	stim	poldrack-single-stim	s638	0	False
502.948	1.0	504.246	0.9	2.0	True	71.0	Magnitude	n/a	twobytwo	71.0	0.398	orange	8.0	task_switch	magnitude	switch	stim	poldrack-single-stim	s638	0	False
505.854	1.0	507.404	0.9	2.136	False	71.0	Color	n/a	twobytwo	89.0	0.65	blue	1.0	task_switch	color	switch	stim	poldrack-single-stim	s638	0	False
508.095	1.0	508.861	0.1	2.0	True	89.0	Orange-Blue	switch	twobytwo	89.0	0.666	orange	3.0	cue_switch	color	stay	stim	poldrack-single-stim	s638	0	False
510.998	1.0	512.394	0.9	2.0	True	71.0	High-Low	n/a	twobytwo	71.0	0.496	orange	9.0	task_switch	magnitude	switch	stim	poldrack-single-stim	s638	0	False
513.903	1.0	515.716	0.9	2.0	True	71.0	Orange-Blue	n/a	twobytwo	71.0	0.913	blue	2.0	task_switch	color	switch	stim	poldrack-single-stim	s638	0	False
516.808	1.0	518.261	0.9	2.136	True	89.0	High-Low	n/a	twobytwo	89.0	0.553	orange	3.0	task_switch	magnitude	switch	stim	poldrack-single-stim	s638	0	False
519.049	1.0	519.953	0.1	2.136	True	71.0	Orange-Blue	n/a	twobytwo	71.0	0.804	blue	8.0	task_switch	color	switch	stim	poldrack-single-stim	s638	0	False
521.29	1.0	521.933	0.1	2.136	True	89.0	Magnitude	n/a	twobytwo	89.0	0.543	orange	4.0	task_switch	magnitude	switch	stim	poldrack-single-stim	s638	0	False
523.532	1.0	524.218	0.1	2.136	True	89.0	High-Low	switch	twobytwo	89.0	0.586	blue	1.0	cue_switch	magnitude	stay	stim	poldrack-single-stim	s638	0	False
525.773	1.0	526.391	0.1	2.68	True	71.0	High-Low	stay	twobytwo	71.0	0.518	blue	6.0	cue_stay	magnitude	stay	stim	poldrack-single-stim	s638	0	False
528.557	1.0	529.192	0.1	2.544	True	89.0	Orange-Blue	n/a	twobytwo	89.0	0.535	orange	2.0	task_switch	color	switch	stim	poldrack-single-stim	s638	0	False
531.206	1.0	531.795	0.1	2.272	True	71.0	Magnitude	n/a	twobytwo	71.0	0.489	blue	8.0	task_switch	magnitude	switch	stim	poldrack-single-stim	s638	0	False
533.583	1.0	534.237	0.1	2.272	True	71.0	High-Low	switch	twobytwo	71.0	0.554	orange	8.0	cue_switch	magnitude	stay	stim	poldrack-single-stim	s638	0	False
535.961	1.0	536.669	0.1	2.408	True	89.0	Magnitude	switch	twobytwo	89.0	0.608	blue	3.0	cue_switch	magnitude	stay	stim	poldrack-single-stim	s638	0	False
539.274	1.0	540.629	0.9	2.136	True	89.0	Magnitude	stay	twobytwo	89.0	0.455	orange	1.0	cue_stay	magnitude	stay	stim	poldrack-single-stim	s638	0	False
542.315	1.0	543.683	0.9	2.272	True	89.0	Magnitude	stay	twobytwo	89.0	0.468	blue	1.0	cue_stay	magnitude	stay	stim	poldrack-single-stim	s638	0	False
544.692	1.0	545.336	0.1	2.0	True	71.0	Magnitude	stay	twobytwo	71.0	0.544	orange	6.0	cue_stay	magnitude	stay	stim	poldrack-single-stim	s638	0	False
546.796	1.0	547.651	0.1	2.136	True	89.0	High-Low	switch	twobytwo	89.0	0.755	orange	4.0	cue_switch	magnitude	stay	stim	poldrack-single-stim	s638	0	False
549.837	1.0	551.177	0.9	2.272	True	71.0	Orange-Blue	n/a	twobytwo	71.0	0.44	blue	8.0	task_switch	color	switch	stim	poldrack-single-stim	s638	0	False
553.013	1.0	554.264	0.9	2.0	True	89.0	Color	switch	twobytwo	89.0	0.351	orange	4.0	cue_switch	color	stay	stim	poldrack-single-stim	s638	0	False
555.917	1.0	557.746	0.9	2.68	True	89.0	Orange-Blue	switch	twobytwo	89.0	0.929	orange	7.0	cue_switch	color	stay	stim	poldrack-single-stim	s638	0	False
559.503	1.0	560.793	0.9	2.0	True	71.0	Color	switch	twobytwo	71.0	0.39	blue	2.0	cue_switch	color	stay	stim	poldrack-single-stim	s638	0	False
561.608	1.0	562.23	0.1	2.0	True	89.0	Orange-Blue	switch	twobytwo	89.0	0.522	orange	7.0	cue_switch	color	stay	stim	poldrack-single-stim	s638	0	False
564.513	1.0	565.774	0.9	2.0	True	89.0	Orange-Blue	stay	twobytwo	89.0	0.361	orange	4.0	cue_stay	color	stay	stim	poldrack-single-stim	s638	0	False
566.618	1.0	567.481	0.1	2.272	True	89.0	Color	switch	twobytwo	89.0	0.763	orange	2.0	cue_switch	color	stay	stim	poldrack-single-stim	s638	0	False
569.796	1.0	571.144	0.9	2.0	True	89.0	Orange-Blue	switch	twobytwo	89.0	0.448	orange	7.0	cue_switch	color	stay	stim	poldrack-single-stim	s638	0	False
572.701	1.0	573.998	0.9	2.0	True	89.0	Color	switch	twobytwo	89.0	0.397	orange	9.0	cue_switch	color	stay	stim	poldrack-single-stim	s638	0	False
575.604	1.0	576.914	0.9	2.0	True	89.0	Orange-Blue	switch	twobytwo	89.0	0.41	orange	8.0	cue_switch	color	stay	stim	poldrack-single-stim	s638	0	False
577.709	1.0	578.307	0.1	2.68	True	89.0	Color	switch	twobytwo	89.0	0.498	orange	9.0	cue_switch	color	stay	stim	poldrack-single-stim	s638	0	False
580.494	1.0	581.037	0.1	2.0	True	89.0	Color	stay	twobytwo	89.0	0.443	orange	1.0	cue_stay	color	stay	stim	poldrack-single-stim	s638	0	False
582.599	1.0	583.371	0.1	2.136	True	71.0	Magnitude	n/a	twobytwo	71.0	0.672	blue	9.0	task_switch	magnitude	switch	stim	poldrack-single-stim	s638	0	False
584.84	1.0	585.448	0.1	2.408	True	89.0	High-Low	switch	twobytwo	89.0	0.508	orange	1.0	cue_switch	magnitude	stay	stim	poldrack-single-stim	s638	0	False
588.153	1.0	589.48	0.9	2.136	True	89.0	Orange-Blue	n/a	twobytwo	89.0	0.427	orange	7.0	task_switch	color	switch	stim	poldrack-single-stim	s638	0	False
590.395	1.0	590.953	0.1	2.0	True	71.0	Magnitude	n/a	twobytwo	71.0	0.458	blue	6.0	task_switch	magnitude	switch	stim	poldrack-single-stim	s638	0	False
593.3	1.0	594.598	0.9	2.0	True	89.0	Color	n/a	twobytwo	89.0	0.398	orange	1.0	task_switch	color	switch	stim	poldrack-single-stim	s638	0	False
596.206	1.0	597.813	0.9	2.544	True	89.0	Orange-Blue	switch	twobytwo	89.0	0.707	orange	8.0	cue_switch	color	stay	stim	poldrack-single-stim	s638	0	False
599.655	1.0	601.296	0.9	2.136	True	89.0	Color	switch	twobytwo	89.0	0.741	orange	4.0	cue_switch	color	stay	stim	poldrack-single-stim	s638	0	False
602.696	1.0	604.103	0.9	2.544	True	71.0	Orange-Blue	switch	twobytwo	71.0	0.507	blue	9.0	cue_switch	color	stay	stim	poldrack-single-stim	s638	0	False
606.145	1.0	607.791	0.9	2.68	False	71.0	Color	switch	twobytwo	89.0	0.746	blue	2.0	cue_switch	color	stay	stim	poldrack-single-stim	s638	0	False
609.731	1.0	611.153	0.9	2.0	True	71.0	High-Low	n/a	twobytwo	71.0	0.522	blue	6.0	task_switch	magnitude	switch	stim	poldrack-single-stim	s638	0	False
611.836	1.0	612.827	0.1	2.272	True	89.0	Orange-Blue	n/a	twobytwo	89.0	0.891	orange	1.0	task_switch	color	switch	stim	poldrack-single-stim	s638	0	False
614.214	1.0	615.067	0.1	3.088	True	71.0	High-Low	n/a	twobytwo	71.0	0.753	orange	8.0	task_switch	magnitude	switch	stim	poldrack-single-stim	s638	0	False
618.208	1.0	620.204	0.9	2.0	True	89.0	Magnitude	switch	twobytwo	89.0	1.096	blue	3.0	cue_switch	magnitude	stay	stim	poldrack-single-stim	s638	0	False
621.114	1.0	622.54	0.9	2.136	True	71.0	Magnitude	stay	twobytwo	71.0	0.526	blue	7.0	cue_stay	magnitude	stay	stim	poldrack-single-stim	s638	0	False
623.354	1.0	624.153	0.1	2.136	True	89.0	Color	n/a	twobytwo	89.0	0.699	orange	9.0	task_switch	color	switch	stim	poldrack-single-stim	s638	0	False
626.395	1.0	627.812	0.9	2.0	True	71.0	Color	stay	twobytwo	71.0	0.517	blue	6.0	cue_stay	color	stay	stim	poldrack-single-stim	s638	0	False
628.501	1.0	629.304	0.1	2.272	True	89.0	Orange-Blue	switch	twobytwo	89.0	0.703	orange	6.0	cue_switch	color	stay	stim	poldrack-single-stim	s638	0	False
630.878	1.0	631.663	0.1	2.0	True	71.0	Orange-Blue	stay	twobytwo	71.0	0.685	blue	9.0	cue_stay	color	stay	stim	poldrack-single-stim	s638	0	False
632.982	1.0	633.634	0.1	2.136	True	89.0	Orange-Blue	stay	twobytwo	89.0	0.552	orange	8.0	cue_stay	color	stay	stim	poldrack-single-stim	s638	0	False
636.023	1.0	637.424	0.9	2.136	True	89.0	High-Low	n/a	twobytwo	89.0	0.501	orange	4.0	task_switch	magnitude	switch	stim	poldrack-single-stim	s638	0	False
639.064	1.0	640.575	0.9	2.544	False	71.0	Orange-Blue	n/a	twobytwo	89.0	0.611	blue	2.0	task_switch	color	switch	stim	poldrack-single-stim	s638	0	False
642.514	1.0	643.829	0.9	2.0	True	89.0	Magnitude	n/a	twobytwo	89.0	0.415	blue	2.0	task_switch	magnitude	switch	stim	poldrack-single-stim	s638	0	False
644.618	1.0	645.579	0.1	2.136	True	71.0	Orange-Blue	n/a	twobytwo	71.0	0.861	blue	7.0	task_switch	color	switch	stim	poldrack-single-stim	s638	0	False
646.862	1.0	647.6	0.1	2.136	True	71.0	Orange-Blue	stay	twobytwo	71.0	0.638	blue	6.0	cue_stay	color	stay	stim	poldrack-single-stim	s638	0	False
649.902	1.0	651.319	0.9	2.136	True	89.0	Color	switch	twobytwo	89.0	0.517	orange	1.0	cue_switch	color	stay	stim	poldrack-single-stim	s638	0	False
652.141	1.0	653.097	0.1	2.0	True	71.0	Orange-Blue	switch	twobytwo	71.0	0.856	blue	3.0	cue_switch	color	stay	stim	poldrack-single-stim	s638	0	False
654.245	1.0	654.887	0.1	2.136	True	89.0	High-Low	n/a	twobytwo	89.0	0.542	orange	4.0	task_switch	magnitude	switch	stim	poldrack-single-stim	s638	0	False
656.487	1.0	657.191	0.1	2.0	True	89.0	Orange-Blue	n/a	twobytwo	89.0	0.604	orange	2.0	task_switch	color	switch	stim	poldrack-single-stim	s638	0	False
659.392	1.0	660.653	0.9	2.136	True	71.0	High-Low	n/a	twobytwo	71.0	0.361	orange	8.0	task_switch	magnitude	switch	stim	poldrack-single-stim	s638	0	False
662.433	1.0	663.803	0.9	2.816	False	71.0	Magnitude	switch	twobytwo	89.0	0.47	orange	7.0	cue_switch	magnitude	stay	stim	poldrack-single-stim	s638	0	False
666.154	1.0	667.722	0.9	2.136	True	89.0	Orange-Blue	n/a	twobytwo	89.0	0.668	orange	7.0	task_switch	color	switch	stim	poldrack-single-stim	s638	0	False
669.196	1.0	670.884	0.9	2.0	True	89.0	Magnitude	n/a	twobytwo	89.0	0.788	blue	4.0	task_switch	magnitude	switch	stim	poldrack-single-stim	s638	0	False
671.301	1.0	672.094	0.1	2.0	True	71.0	High-Low	switch	twobytwo	71.0	0.693	orange	7.0	cue_switch	magnitude	stay	stim	poldrack-single-stim	s638	0	False
674.207	1.0	675.629	0.9	2.272	True	71.0	Orange-Blue	n/a	twobytwo	71.0	0.522	blue	6.0	task_switch	color	switch	stim	poldrack-single-stim	s638	0	False
677.384	1.0	679.08	0.9	2.0	True	71.0	Color	switch	twobytwo	71.0	0.796	blue	7.0	cue_switch	color	stay	stim	poldrack-single-stim	s638	0	False
679.488	1.0	680.377	0.1	2.0	True	71.0	High-Low	n/a	twobytwo	71.0	0.789	blue	6.0	task_switch	magnitude	switch	stim	poldrack-single-stim	s638	0	False
682.393	1.0	684.24	0.9	2.0	True	89.0	Color	n/a	twobytwo	89.0	0.947	orange	6.0	task_switch	color	switch	stim	poldrack-single-stim	s638	0	False
685.299	1.0	686.761	0.9	2.408	True	71.0	Color	stay	twobytwo	71.0	0.562	blue	9.0	cue_stay	color	stay	stim	poldrack-single-stim	s638	0	False
