onset	duration	movement_onset	EV	action	block_duration	experiment_exp_id	gain_amount	gain_probability	key_press	loss_amount	loss_probability	num_cards	num_click_in_round	num_loss_cards	risk	response_time	total_cards	trial_id	trial_type	worker_id	junk	feedback
3.009	0.673	3.682	0.1165323033274161	draw_card	0.673	columbia_card_task_fmri	12.0	0.8333333333333334	89.0	-70.0	0.1666666666666666	6.0	1.0	1.0	-2.861785960274407	0.673	n/a	stim	poldrack-single-stim	s638	False	1
3.685	0.698	4.383	-2.616801030005917	draw_card	0.698	columbia_card_task_fmri	12.0	0.8	89.0	-70.0	0.2	6.0	2.0	1.0	-0.6249268553395382	0.698	n/a	stim	poldrack-single-stim	s638	False	1
4.384	0.854	5.238	-6.716801030005918	draw_card	0.854	columbia_card_task_fmri	12.0	0.75	89.0	-70.0	0.25	6.0	3.0	1.0	2.078426740339779	0.854	n/a	stim	poldrack-single-stim	s638	False	1
5.24	1.148	6.388	-13.55013436333925	draw_card	1.148	columbia_card_task_fmri	12.0	0.6666666666666667	89.0	-70.0	0.3333333333333333	6.0	4.0	1.0	5.222915529063243	1.148	n/a	stim	poldrack-single-stim	s638	False	1
6.388	1.098	7.486	-27.21680103000592	draw_card	1.098	columbia_card_task_fmri	12.0	0.5	89.0	-70.0	0.5	6.0	5.0	1.0	7.565396079961431	1.098	n/a	stim	poldrack-single-stim	s638	False	1
7.487	0.573	8.06	-68.21680103000591	end_round	0.573	columbia_card_task_fmri	12.0	0.0	71.0	-70.0	1.0	6.0	6.0	1.0	-31.69016466042788	0.573	5.0	stim	poldrack-single-stim	s638	False	1
8.814	1.5	8.063	n/a	-1.0	2.318	columbia_card_task_fmri	n/a	n/a	-1.0	n/a	n/a	n/a	n/a	n/a	n/a	n/a	n/a	ITI	poldrack-single-stim	s638	False	0
10.388	1.278	11.666	0.94986563666075	draw_card	1.278	columbia_card_task_fmri	14.0	0.8333333333333334	89.0	-75.0	0.1666666666666666	6.0	1.0	1.0	-0.2571223100155251	1.278	n/a	stim	poldrack-single-stim	s638	False	1
11.667	2.039	13.706	-2.016801030005917	draw_card	2.039	columbia_card_task_fmri	14.0	0.8	89.0	-75.0	0.2	6.0	2.0	1.0	2.1712684839173164	2.039	2.0	stim	poldrack-single-stim	s638	False	0
14.46	1.5	13.709	n/a	-1.0	2.318	columbia_card_task_fmri	n/a	n/a	-1.0	n/a	n/a	n/a	n/a	n/a	n/a	n/a	n/a	ITI	poldrack-single-stim	s638	False	0
16.03	0.59	16.62	2.616532303327416	end_round	0.59	columbia_card_task_fmri	15.0	0.8333333333333334	71.0	-70.0	0.1666666666666666	6.0	1.0	1.0	-1.745583676747145	0.59	0.0	stim	poldrack-single-stim	s638	False	1
17.372	1.5	16.621	n/a	-1.0	2.862	columbia_card_task_fmri	n/a	n/a	-1.0	n/a	n/a	n/a	n/a	n/a	n/a	n/a	n/a	ITI	poldrack-single-stim	s638	False	0
19.486	0.564	20.05	3.44986563666075	draw_card	0.564	columbia_card_task_fmri	17.0	0.8333333333333334	89.0	-75.0	0.1666666666666666	6.0	1.0	1.0	0.8593518771248085	0.564	n/a	stim	poldrack-single-stim	s638	False	1
20.052	0.759	20.811	0.3831989699940836	draw_card	0.759	columbia_card_task_fmri	17.0	0.8	89.0	-75.0	0.2	6.0	2.0	1.0	3.3698148232156555	0.759	2.0	stim	poldrack-single-stim	s638	False	0
21.564	1.5	20.813	n/a	-1.0	2.726	columbia_card_task_fmri	n/a	n/a	-1.0	n/a	n/a	n/a	n/a	n/a	n/a	n/a	n/a	ITI	poldrack-single-stim	s638	False	0
23.542	0.536	24.078	4.783198969994082	draw_card	0.536	columbia_card_task_fmri	24.0	0.75	89.0	-60.0	0.25	8.0	1.0	2.0	2.9433879897677144	0.536	n/a	stim	poldrack-single-stim	s638	False	1
24.08	1.523	25.603	1.7831989699940822	draw_card	1.523	columbia_card_task_fmri	24.0	0.7142857142857143	89.0	-60.0	0.2857142857142857	8.0	2.0	2.0	4.515842712519543	1.523	2.0	stim	poldrack-single-stim	s638	False	0
26.356	1.5	25.605	n/a	-1.0	2.25	columbia_card_task_fmri	n/a	n/a	-1.0	n/a	n/a	n/a	n/a	n/a	n/a	n/a	n/a	ITI	poldrack-single-stim	s638	False	0
27.858	0.583	28.441	4.783198969994082	draw_card	0.583	columbia_card_task_fmri	29.0	0.75	89.0	-75.0	0.25	8.0	1.0	2.0	11.595248491170906	0.583	n/a	stim	poldrack-single-stim	s638	False	1
28.444	1.516	29.96	1.0689132557083705	draw_card	1.516	columbia_card_task_fmri	29.0	0.7142857142857143	89.0	-75.0	0.2857142857142857	8.0	2.0	2.0	13.542875450794403	1.516	n/a	stim	poldrack-single-stim	s638	False	1
29.962	1.529	31.491	-3.8834676966725823	end_round	1.529	columbia_card_task_fmri	29.0	0.6666666666666667	71.0	-75.0	0.3333333333333333	8.0	3.0	2.0	15.585125483309852	1.529	2.0	stim	poldrack-single-stim	s638	False	1
32.244	1.5	31.493	n/a	-1.0	2.318	columbia_card_task_fmri	n/a	n/a	-1.0	n/a	n/a	n/a	n/a	n/a	n/a	n/a	n/a	ITI	poldrack-single-stim	s638	False	0
33.814	0.781	34.595	0.5609767477718626	draw_card	0.781	columbia_card_task_fmri	17.0	0.7777777777777778	89.0	-65.0	0.2222222222222222	9.0	1.0	2.0	0.6638980944551491	0.781	n/a	stim	poldrack-single-stim	s638	False	1
34.596	2.606	37.202	-1.7168010300059178	draw_card	2.606	columbia_card_task_fmri	17.0	0.75	89.0	-65.0	0.25	9.0	2.0	2.0	2.078426740339779	2.606	2.0	stim	poldrack-single-stim	s638	False	0
37.956	1.5	37.205	n/a	-1.0	2.454	columbia_card_task_fmri	n/a	n/a	-1.0	n/a	n/a	n/a	n/a	n/a	n/a	n/a	n/a	ITI	poldrack-single-stim	s638	False	0
39.662	0.694	40.356	4.883198969994082	draw_card	0.694	columbia_card_task_fmri	14.0	0.9	89.0	-95.0	0.1	10.0	1.0	1.0	-0.7247789500638291	0.694	1.0	stim	poldrack-single-stim	s638	False	0
41.109	1.5	40.358	n/a	-1.0	2.522	columbia_card_task_fmri	n/a	n/a	-1.0	n/a	n/a	n/a	n/a	n/a	n/a	n/a	n/a	ITI	poldrack-single-stim	s638	False	0
42.883	3.233	46.116	0.7831989699940822	draw_card	3.233	columbia_card_task_fmri	15.0	0.8	89.0	-65.0	0.2	10.0	1.0	2.0	-1.4237177889062167	3.233	n/a	stim	poldrack-single-stim	s638	False	1
46.118	1.384	47.502	-0.9945788077836946	draw_card	1.384	columbia_card_task_fmri	15.0	0.7777777777777778	89.0	-65.0	0.2222222222222222	10.0	2.0	2.0	-0.16641783719799	1.384	n/a	stim	poldrack-single-stim	s638	False	1
47.504	1.313	48.817	-3.216801030005918	draw_card	1.313	columbia_card_task_fmri	15.0	0.75	89.0	-65.0	0.25	10.0	3.0	2.0	1.2135185956673027	1.313	3.0	stim	poldrack-single-stim	s638	False	0
49.57	1.5	48.819	n/a	-1.0	2.318	columbia_card_task_fmri	n/a	n/a	-1.0	n/a	n/a	n/a	n/a	n/a	n/a	n/a	n/a	ITI	poldrack-single-stim	s638	False	0
51.141	0.783	51.924	2.3831989699940834	draw_card	0.783	columbia_card_task_fmri	17.0	0.8	89.0	-65.0	0.2	10.0	1.0	2.0	-0.6249268553395382	0.783	1.0	stim	poldrack-single-stim	s638	False	0
52.676	1.5	51.925	n/a	-1.0	2.522	columbia_card_task_fmri	n/a	n/a	-1.0	n/a	n/a	n/a	n/a	n/a	n/a	n/a	n/a	ITI	poldrack-single-stim	s638	False	0
54.452	0.566	55.018	0.94986563666075	draw_card	0.566	columbia_card_task_fmri	13.0	0.8333333333333334	89.0	-70.0	0.1666666666666666	12.0	1.0	2.0	-2.489733208501697	0.566	1.0	stim	poldrack-single-stim	s638	False	0
55.772	1.5	55.021	n/a	-1.0	2.998	columbia_card_task_fmri	n/a	n/a	-1.0	n/a	n/a	n/a	n/a	n/a	n/a	n/a	n/a	ITI	poldrack-single-stim	s638	False	0
58.022	1.812	59.834	0.94986563666075	draw_card	1.812	columbia_card_task_fmri	15.0	0.8333333333333334	89.0	-80.0	0.1666666666666666	12.0	1.0	2.0	1.975924384837377	1.812	n/a	stim	poldrack-single-stim	s638	False	1
59.836	1.856	61.692	-0.4895283027331929	draw_card	1.856	columbia_card_task_fmri	15.0	0.8181818181818181	89.0	-80.0	0.1818181818181818	12.0	2.0	2.0	3.210989737705731	1.856	n/a	stim	poldrack-single-stim	s638	False	1
61.695	3.201	64.896	-2.216801030005918	draw_card	3.201	columbia_card_task_fmri	15.0	0.8	89.0	-80.0	0.2	12.0	3.0	2.0	4.568452816306596	3.201	n/a	stim	poldrack-single-stim	s638	False	1
64.896	1.581	66.477	-4.327912141117031	draw_card	1.581	columbia_card_task_fmri	15.0	0.7777777777777778	89.0	-80.0	0.2222222222222222	12.0	4.0	2.0	6.062143724062111	1.581	n/a	stim	poldrack-single-stim	s638	False	1
66.481	1.826	68.307	-6.966801030005918	draw_card	1.826	columbia_card_task_fmri	15.0	0.75	89.0	-80.0	0.25	12.0	5.0	2.0	7.701474542503348	1.826	n/a	stim	poldrack-single-stim	s638	False	1
68.309	1.8	70.109	-10.359658172863057	draw_card	1.8	columbia_card_task_fmri	15.0	0.7142857142857143	89.0	-80.0	0.2857142857142857	12.0	6.0	2.0	9.480292014475886	1.8	6.0	stim	poldrack-single-stim	s638	False	0
70.862	1.5	70.111	n/a	-1.0	2.318	columbia_card_task_fmri	n/a	n/a	-1.0	n/a	n/a	n/a	n/a	n/a	n/a	n/a	n/a	ITI	poldrack-single-stim	s638	False	0
72.432	1.938	74.37	-0.0168010300059167	draw_card	1.938	columbia_card_task_fmri	14.0	0.8	89.0	-65.0	0.2	15.0	1.0	3.0	-1.8230903525087463	1.938	1.0	stim	poldrack-single-stim	s638	False	0
75.123	1.5	74.372	n/a	-1.0	2.25	columbia_card_task_fmri	n/a	n/a	-1.0	n/a	n/a	n/a	n/a	n/a	n/a	n/a	n/a	ITI	poldrack-single-stim	s638	False	0
76.627	2.491	79.118	-0.0918010300059177	draw_card	2.491	columbia_card_task_fmri	1.0	0.9375	89.0	-45.0	0.0625	16.0	1.0	1.0	-22.196654289191795	2.491	n/a	stim	poldrack-single-stim	s638	False	1
79.121	2.081	81.202	-0.2834676966725842	draw_card	2.081	columbia_card_task_fmri	1.0	0.9333333333333332	89.0	-45.0	0.0666666666666666	16.0	2.0	1.0	-21.86121392466937	2.081	n/a	stim	poldrack-single-stim	s638	False	1
81.204	1.815	83.019	-0.5025153157202034	draw_card	1.815	columbia_card_task_fmri	1.0	0.9285714285714286	89.0	-45.0	0.0714285714285714	16.0	3.0	1.0	-21.49309913659304	1.815	n/a	stim	poldrack-single-stim	s638	False	1
83.02	3.496	86.516	-0.7552625684674561	draw_card	3.496	columbia_card_task_fmri	1.0	0.9230769230769232	89.0	-45.0	0.0769230769230769	16.0	4.0	1.0	-21.086745073420744	3.496	n/a	stim	poldrack-single-stim	s638	False	1
86.519	1.319	87.838	-1.0501343633392513	draw_card	1.319	columbia_card_task_fmri	1.0	0.9166666666666666	89.0	-45.0	0.0833333333333333	16.0	5.0	1.0	-20.635190572876876	1.319	n/a	stim	poldrack-single-stim	s638	False	1
87.84	0.797	88.637	-1.3986192118240994	end_round	0.797	columbia_card_task_fmri	1.0	0.9090909090909092	71.0	-45.0	0.0909090909090909	16.0	6.0	1.0	-20.129607351755936	0.797	5.0	stim	poldrack-single-stim	s638	False	1
89.391	1.5	88.64	n/a	-1.0	2.454	columbia_card_task_fmri	n/a	n/a	-1.0	n/a	n/a	n/a	n/a	n/a	n/a	n/a	n/a	ITI	poldrack-single-stim	s638	False	0
91.096	2.081	93.177	0.8456989699940822	draw_card	2.081	columbia_card_task_fmri	15.0	0.8125	89.0	-70.0	0.1875	16.0	1.0	3.0	-0.2489239464094197	2.081	n/a	stim	poldrack-single-stim	s638	False	1
93.179	2.197	95.376	-0.2168010300059177	draw_card	2.197	columbia_card_task_fmri	15.0	0.8	89.0	-70.0	0.2	16.0	2.0	3.0	0.5733660005805987	2.197	n/a	stim	poldrack-single-stim	s638	False	1
95.379	1.828	97.207	-1.431086744291633	draw_card	1.828	columbia_card_task_fmri	15.0	0.7857142857142857	89.0	-70.0	0.2142857142857142	16.0	3.0	3.0	1.4498933797602405	1.828	3.0	stim	poldrack-single-stim	s638	False	0
97.961	1.5	97.21	n/a	-1.0	2.318	columbia_card_task_fmri	n/a	n/a	-1.0	n/a	n/a	n/a	n/a	n/a	n/a	n/a	n/a	ITI	poldrack-single-stim	s638	False	0
99.532	0.75	100.282	7.783198969994082	draw_card	0.75	columbia_card_task_fmri	30.0	0.7	89.0	-50.0	0.3	10.0	1.0	3.0	3.2305843665794924	0.75	n/a	stim	poldrack-single-stim	s638	False	1
100.284	0.812	101.096	5.116532303327421	draw_card	0.812	columbia_card_task_fmri	30.0	0.6666666666666667	89.0	-50.0	0.3333333333333333	10.0	2.0	3.0	4.2811330658499855	0.812	n/a	stim	poldrack-single-stim	s638	False	1
101.098	1.413	102.511	1.7831989699940822	draw_card	1.413	columbia_card_task_fmri	30.0	0.625	89.0	-50.0	0.375	10.0	3.0	3.0	5.297499121992864	1.413	n/a	stim	poldrack-single-stim	s638	False	1
102.514	0.593	103.107	-2.5025153157202027	end_round	0.593	columbia_card_task_fmri	30.0	0.5714285714285714	71.0	-50.0	0.4285714285714285	10.0	4.0	3.0	6.1565081501187535	0.593	3.0	stim	poldrack-single-stim	s638	False	1
103.86	1.5	103.109	n/a	-1.0	2.318	columbia_card_task_fmri	n/a	n/a	-1.0	n/a	n/a	n/a	n/a	n/a	n/a	n/a	n/a	ITI	poldrack-single-stim	s638	False	0
105.431	1.808	107.239	7.183198969994082	draw_card	1.808	columbia_card_task_fmri	17.0	0.8666666666666667	89.0	-70.0	0.1333333333333333	15.0	1.0	2.0	-3.84533975830745	1.808	n/a	stim	poldrack-single-stim	s638	False	1
107.241	1.547	108.788	6.354627541422655	draw_card	1.547	columbia_card_task_fmri	17.0	0.8571428571428572	89.0	-70.0	0.1428571428571428	15.0	2.0	2.0	-2.977525798068516	1.547	n/a	stim	poldrack-single-stim	s638	False	1
108.791	1.556	110.347	5.398583585378697	draw_card	1.556	columbia_card_task_fmri	17.0	0.8461538461538461	89.0	-70.0	0.1538461538461538	15.0	3.0	2.0	-2.0330486187360397	1.556	n/a	stim	poldrack-single-stim	s638	False	1
110.349	1.733	112.082	4.283198969994084	draw_card	1.733	columbia_card_task_fmri	17.0	0.8333333333333334	89.0	-70.0	0.1666666666666666	15.0	4.0	2.0	-1.0013788040121767	1.733	n/a	stim	poldrack-single-stim	s638	False	1
112.085	1.452	113.537	2.965017151812262	end_round	1.452	columbia_card_task_fmri	17.0	0.8181818181818181	71.0	-70.0	0.1818181818181818	15.0	5.0	2.0	0.1294151343669369	1.452	4.0	stim	poldrack-single-stim	s638	False	1
114.29	1.5	113.539	n/a	-1.0	2.59	columbia_card_task_fmri	n/a	n/a	-1.0	n/a	n/a	n/a	n/a	n/a	n/a	n/a	n/a	ITI	poldrack-single-stim	s638	False	0
116.132	0.762	116.894	2.408198969994082	end_round	0.762	columbia_card_task_fmri	7.0	0.9375	71.0	-95.0	0.0625	16.0	1.0	1.0	-8.7187847900016	0.762	0.0	stim	poldrack-single-stim	s638	False	1
117.649	1.5	116.898	n/a	-1.0	2.25	columbia_card_task_fmri	n/a	n/a	-1.0	n/a	n/a	n/a	n/a	n/a	n/a	n/a	n/a	ITI	poldrack-single-stim	s638	False	0
119.151	0.755	119.906	3.970698969994082	draw_card	0.755	columbia_card_task_fmri	9.0	0.9375	89.0	-100.0	0.0625	16.0	1.0	1.0	-7.028474855526586	0.755	n/a	stim	poldrack-single-stim	s638	False	1
119.909	1.592	121.501	3.5165323033274154	draw_card	1.592	columbia_card_task_fmri	9.0	0.9333333333333332	89.0	-100.0	0.0666666666666666	16.0	2.0	1.0	-6.225574347824932	1.592	n/a	stim	poldrack-single-stim	s638	False	1
121.503	1.486	122.989	2.9974846842797973	draw_card	1.486	columbia_card_task_fmri	9.0	0.9285714285714286	89.0	-100.0	0.0714285714285714	16.0	3.0	1.0	-5.344991676633576	1.486	n/a	stim	poldrack-single-stim	s638	False	1
122.992	1.314	124.306	2.398583585378698	draw_card	1.314	columbia_card_task_fmri	9.0	0.9230769230769232	89.0	-100.0	0.0769230769230769	16.0	4.0	1.0	-4.373516545914189	1.314	n/a	stim	poldrack-single-stim	s638	False	1
124.307	1.388	125.695	1.69986563666075	draw_card	1.388	columbia_card_task_fmri	9.0	0.9166666666666666	89.0	-100.0	0.0833333333333333	16.0	5.0	1.0	-3.294626290111051	1.388	n/a	stim	poldrack-single-stim	s638	False	1
125.698	1.501	127.199	0.8741080609031722	draw_card	1.501	columbia_card_task_fmri	9.0	0.9090909090909092	89.0	-100.0	0.0909090909090909	16.0	6.0	1.0	-2.0873695404959847	1.501	n/a	stim	poldrack-single-stim	s638	False	1
127.201	1.464	128.665	-0.1168010300059181	end_round	1.464	columbia_card_task_fmri	9.0	0.9	71.0	-100.0	0.1	16.0	7.0	1.0	-0.7247789500638291	1.464	6.0	stim	poldrack-single-stim	s638	False	1
129.419	1.5	128.668	n/a	-1.0	2.25	columbia_card_task_fmri	n/a	n/a	-1.0	n/a	n/a	n/a	n/a	n/a	n/a	n/a	n/a	ITI	poldrack-single-stim	s638	False	0
130.923	1.731	132.654	4.908198969994082	draw_card	1.731	columbia_card_task_fmri	15.0	0.875	89.0	-80.0	0.125	16.0	1.0	2.0	-2.0045032512060104	1.731	n/a	stim	poldrack-single-stim	s638	False	1
132.657	1.032	133.689	4.116532303327416	end_round	1.032	columbia_card_task_fmri	15.0	0.8666666666666667	71.0	-80.0	0.1333333333333333	16.0	2.0	2.0	-1.1303784952264735	1.032	1.0	stim	poldrack-single-stim	s638	False	1
134.443	1.5	133.692	n/a	-1.0	2.522	columbia_card_task_fmri	n/a	n/a	-1.0	n/a	n/a	n/a	n/a	n/a	n/a	n/a	n/a	ITI	poldrack-single-stim	s638	False	0
136.218	0.746	136.964	7.033198969994082	draw_card	0.746	columbia_card_task_fmri	16.0	0.875	89.0	-70.0	0.125	16.0	1.0	2.0	-4.975691820840964	0.746	n/a	stim	poldrack-single-stim	s638	False	1
136.967	1.508	138.475	6.316532303327415	draw_card	1.508	columbia_card_task_fmri	16.0	0.8666666666666667	89.0	-70.0	0.1333333333333333	16.0	2.0	2.0	-4.184651001569932	1.508	n/a	stim	poldrack-single-stim	s638	False	1
138.477	1.387	139.864	5.497484684279797	draw_card	1.387	columbia_card_task_fmri	16.0	0.8571428571428572	89.0	-70.0	0.1428571428571428	16.0	3.0	2.0	-3.326847220929277	1.387	n/a	stim	poldrack-single-stim	s638	False	1
139.867	1.421	141.288	4.55242973922485	draw_card	1.421	columbia_card_task_fmri	16.0	0.8461538461538461	89.0	-70.0	0.1538461538461538	16.0	4.0	2.0	-2.3932623118150467	1.421	n/a	stim	poldrack-single-stim	s638	False	1
141.29	1.427	142.717	3.44986563666075	draw_card	1.427	columbia_card_task_fmri	16.0	0.8333333333333334	89.0	-70.0	0.1666666666666666	16.0	5.0	2.0	-1.3734879174412455	1.427	n/a	stim	poldrack-single-stim	s638	False	1
142.72	1.305	144.025	2.1468353336304435	draw_card	1.305	columbia_card_task_fmri	16.0	0.8181818181818181	89.0	-70.0	0.1818181818181818	16.0	6.0	2.0	-0.2557297061752592	1.305	n/a	stim	poldrack-single-stim	s638	False	1
144.028	1.378	145.406	0.5831989699940829	draw_card	1.378	columbia_card_task_fmri	16.0	0.8	89.0	-70.0	0.2	16.0	7.0	2.0	0.9728233656243148	1.378	7.0	stim	poldrack-single-stim	s638	False	0
146.161	1.5	145.41	n/a	-1.0	2.454	columbia_card_task_fmri	n/a	n/a	-1.0	n/a	n/a	n/a	n/a	n/a	n/a	n/a	n/a	ITI	poldrack-single-stim	s638	False	0
147.867	1.016	148.883	8.345698969994082	draw_card	1.016	columbia_card_task_fmri	30.0	0.6875	89.0	-45.0	0.3125	16.0	1.0	5.0	1.3357715544197788	1.016	1.0	stim	poldrack-single-stim	s638	False	0
149.638	1.5	148.887	n/a	-1.0	2.25	columbia_card_task_fmri	n/a	n/a	-1.0	n/a	n/a	n/a	n/a	n/a	n/a	n/a	n/a	ITI	poldrack-single-stim	s638	False	0
151.141	0.634	151.775	0.1165323033274161	draw_card	0.634	columbia_card_task_fmri	13.0	0.8333333333333334	89.0	-75.0	0.1666666666666666	6.0	1.0	1.0	-0.6292567903487623	0.634	n/a	stim	poldrack-single-stim	s638	False	1
151.778	0.896	152.674	-2.8168010300059176	draw_card	0.896	columbia_card_task_fmri	13.0	0.8	89.0	-75.0	0.2	6.0	2.0	1.0	1.7717750211224157	0.896	n/a	stim	poldrack-single-stim	s638	False	1
152.675	0.721	153.396	-7.216801030005918	draw_card	0.721	columbia_card_task_fmri	13.0	0.75	89.0	-75.0	0.25	6.0	3.0	1.0	4.673455353165487	0.721	n/a	stim	poldrack-single-stim	s638	False	1
153.399	0.454	153.853	-14.55013436333925	end_round	0.454	columbia_card_task_fmri	13.0	0.6666666666666667	71.0	-75.0	0.3333333333333333	6.0	4.0	1.0	8.048542484970618	0.454	3.0	stim	poldrack-single-stim	s638	False	1
154.607	1.5	153.856	n/a	-1.0	2.454	columbia_card_task_fmri	n/a	n/a	-1.0	n/a	n/a	n/a	n/a	n/a	n/a	n/a	n/a	ITI	poldrack-single-stim	s638	False	0
156.315	0.584	156.899	1.783198969994084	draw_card	0.584	columbia_card_task_fmri	14.0	0.8333333333333334	89.0	-70.0	0.1666666666666666	6.0	1.0	1.0	-2.117665606512695	0.584	n/a	stim	poldrack-single-stim	s638	False	1
156.902	0.854	157.756	-1.0168010300059167	draw_card	0.854	columbia_card_task_fmri	14.0	0.8	89.0	-70.0	0.2	6.0	2.0	1.0	0.1739215285115491	0.854	n/a	stim	poldrack-single-stim	s638	False	1
157.759	0.515	158.274	-5.216801030005918	end_round	0.515	columbia_card_task_fmri	14.0	0.75	71.0	-70.0	0.25	6.0	3.0	1.0	2.9433879897677144	0.515	2.0	stim	poldrack-single-stim	s638	False	1
159.028	1.5	158.277	n/a	-1.0	2.454	columbia_card_task_fmri	n/a	n/a	-1.0	n/a	n/a	n/a	n/a	n/a	n/a	n/a	n/a	ITI	poldrack-single-stim	s638	False	0
160.736	0.394	161.13	1.783198969994084	end_round	0.394	columbia_card_task_fmri	16.0	0.8333333333333334	71.0	-80.0	0.1666666666666666	6.0	1.0	1.0	2.348135480678728	0.394	0.0	stim	poldrack-single-stim	s638	False	1
161.886	1.5	161.135	n/a	-1.0	2.522	columbia_card_task_fmri	n/a	n/a	-1.0	n/a	n/a	n/a	n/a	n/a	n/a	n/a	n/a	ITI	poldrack-single-stim	s638	False	0
163.662	0.285	163.947	4.283198969994084	draw_card	0.285	columbia_card_task_fmri	17.0	0.8333333333333334	89.0	-70.0	0.1666666666666666	6.0	1.0	1.0	-1.0013788040121767	0.285	n/a	stim	poldrack-single-stim	s638	False	1
163.951	0.633	164.584	1.3831989699940836	draw_card	0.633	columbia_card_task_fmri	17.0	0.8	89.0	-70.0	0.2	6.0	2.0	1.0	1.3722931802422238	0.633	n/a	stim	poldrack-single-stim	s638	False	1
164.586	0.624	165.21	-2.966801030005918	draw_card	0.624	columbia_card_task_fmri	17.0	0.75	89.0	-70.0	0.25	6.0	3.0	1.0	4.240921442565799	0.624	n/a	stim	poldrack-single-stim	s638	False	1
165.212	0.726	165.938	-10.216801030005916	draw_card	0.726	columbia_card_task_fmri	17.0	0.6666666666666667	89.0	-70.0	0.3333333333333333	6.0	4.0	1.0	7.577577876035441	0.726	n/a	stim	poldrack-single-stim	s638	False	1
165.942	0.449	166.391	-24.71680103000592	end_round	0.449	columbia_card_task_fmri	17.0	0.5	71.0	-70.0	0.5	6.0	5.0	1.0	10.063170436572705	0.449	4.0	stim	poldrack-single-stim	s638	False	1
167.145	1.5	166.394	n/a	-1.0	2.454	columbia_card_task_fmri	n/a	n/a	-1.0	n/a	n/a	n/a	n/a	n/a	n/a	n/a	n/a	ITI	poldrack-single-stim	s638	False	0
168.852	0.41	169.262	4.283198969994082	end_round	0.41	columbia_card_task_fmri	25.0	0.75	71.0	-65.0	0.25	8.0	1.0	2.0	5.5385550428064505	0.41	0.0	stim	poldrack-single-stim	s638	False	1
170.017	1.5	169.266	n/a	-1.0	2.658	columbia_card_task_fmri	n/a	n/a	-1.0	n/a	n/a	n/a	n/a	n/a	n/a	n/a	n/a	ITI	poldrack-single-stim	s638	False	0
171.928	0.432	172.36	4.283198969994082	draw_card	0.432	columbia_card_task_fmri	30.0	0.75	89.0	-80.0	0.25	8.0	1.0	2.0	14.191401118463425	0.432	n/a	stim	poldrack-single-stim	s638	False	1
172.363	0.957	173.32	0.3546275414226587	draw_card	0.957	columbia_card_task_fmri	30.0	0.7142857142857143	89.0	-80.0	0.2857142857142857	8.0	2.0	2.0	16.251555209819777	0.957	n/a	stim	poldrack-single-stim	s638	False	1
173.322	0.623	173.945	-4.883467696672579	draw_card	0.623	columbia_card_task_fmri	30.0	0.6666666666666667	89.0	-80.0	0.3333333333333333	8.0	3.0	2.0	18.41178537635526	0.623	n/a	stim	poldrack-single-stim	s638	False	1
173.949	0.82	174.769	-12.216801030005918	draw_card	0.82	columbia_card_task_fmri	30.0	0.6	89.0	-80.0	0.4	8.0	4.0	2.0	20.444905987274296	0.82	4.0	stim	poldrack-single-stim	s638	False	0
175.523	1.5	174.772	n/a	-1.0	2.386	columbia_card_task_fmri	n/a	n/a	-1.0	n/a	n/a	n/a	n/a	n/a	n/a	n/a	n/a	ITI	poldrack-single-stim	s638	False	0
177.162	0.498	177.66	3.983198969994083	draw_card	0.498	columbia_card_task_fmri	13.0	0.9	89.0	-95.0	0.1	10.0	1.0	1.0	-1.0243297685858437	0.498	n/a	stim	poldrack-single-stim	s638	False	1
177.663	0.614	178.277	2.783198969994082	draw_card	0.614	columbia_card_task_fmri	13.0	0.8888888888888888	89.0	-95.0	0.1111111111111111	10.0	2.0	1.0	0.5145724435232637	0.614	n/a	stim	poldrack-single-stim	s638	False	1
178.28	0.605	178.885	1.2831989699940822	draw_card	0.605	columbia_card_task_fmri	13.0	0.875	89.0	-95.0	0.125	10.0	3.0	1.0	2.288764362282656	0.605	n/a	stim	poldrack-single-stim	s638	False	1
178.889	0.724	179.613	-0.6453724585773448	draw_card	0.724	columbia_card_task_fmri	13.0	0.8571428571428572	89.0	-95.0	0.1428571428571428	10.0	4.0	1.0	4.360810029455571	0.724	n/a	stim	poldrack-single-stim	s638	False	1
179.616	0.529	180.145	-3.216801030005916	end_round	0.529	columbia_card_task_fmri	13.0	0.8333333333333334	71.0	-95.0	0.1666666666666666	10.0	5.0	1.0	6.815341965148953	0.529	4.0	stim	poldrack-single-stim	s638	False	1
180.9	1.5	180.149	n/a	-1.0	2.522	columbia_card_task_fmri	n/a	n/a	-1.0	n/a	n/a	n/a	n/a	n/a	n/a	n/a	n/a	ITI	poldrack-single-stim	s638	False	0
182.675	0.524	183.199	5.383198969994082	draw_card	0.524	columbia_card_task_fmri	14.0	0.9	89.0	-90.0	0.1	10.0	1.0	1.0	-2.2224468668038533	0.524	1.0	stim	poldrack-single-stim	s638	False	0
183.954	1.5	183.203	n/a	-1.0	2.59	columbia_card_task_fmri	n/a	n/a	-1.0	n/a	n/a	n/a	n/a	n/a	n/a	n/a	n/a	ITI	poldrack-single-stim	s638	False	0
185.798	1.258	187.056	0.5831989699940829	draw_card	1.258	columbia_card_task_fmri	16.0	0.8	89.0	-70.0	0.2	10.0	1.0	2.0	0.9728233656243148	1.258	n/a	stim	poldrack-single-stim	s638	False	1
187.059	1.749	188.808	-1.3279121411170285	draw_card	1.749	columbia_card_task_fmri	16.0	0.7777777777777778	89.0	-70.0	0.2222222222222222	10.0	2.0	2.0	2.3246919902525818	1.749	n/a	stim	poldrack-single-stim	s638	False	1
188.812	1.571	190.383	-3.716801030005918	draw_card	1.571	columbia_card_task_fmri	16.0	0.75	89.0	-70.0	0.25	10.0	3.0	2.0	3.808398647756192	1.571	n/a	stim	poldrack-single-stim	s638	False	1
190.386	0.612	190.998	-6.788229601434489	end_round	0.612	columbia_card_task_fmri	16.0	0.7142857142857143	71.0	-70.0	0.2857142857142857	10.0	4.0	2.0	5.41837782799859	0.612	3.0	stim	poldrack-single-stim	s638	False	1
191.752	1.5	191.001	n/a	-1.0	2.386	columbia_card_task_fmri	n/a	n/a	-1.0	n/a	n/a	n/a	n/a	n/a	n/a	n/a	n/a	ITI	poldrack-single-stim	s638	False	0
193.392	1.508	194.9	-0.1334676966725838	end_round	1.508	columbia_card_task_fmri	7.0	0.9166666666666666	71.0	-100.0	0.0833333333333333	12.0	1.0	1.0	-3.8464132734332033	1.508	0.0	stim	poldrack-single-stim	s638	False	1
195.655	1.5	194.904	n/a	-1.0	2.59	columbia_card_task_fmri	n/a	n/a	-1.0	n/a	n/a	n/a	n/a	n/a	n/a	n/a	n/a	ITI	poldrack-single-stim	s638	False	0
197.499	0.963	198.462	0.1165323033274179	draw_card	0.963	columbia_card_task_fmri	14.0	0.8333333333333334	89.0	-80.0	0.1666666666666666	12.0	1.0	2.0	1.603723203989034	0.963	n/a	stim	poldrack-single-stim	s638	False	1
198.466	1.093	199.559	-1.3077101209150113	draw_card	1.093	columbia_card_task_fmri	14.0	0.8181818181818181	89.0	-80.0	0.1818181818181818	12.0	2.0	2.0	2.825755912045224	1.093	2.0	stim	poldrack-single-stim	s638	False	0
200.313	1.5	199.562	n/a	-1.0	2.318	columbia_card_task_fmri	n/a	n/a	-1.0	n/a	n/a	n/a	n/a	n/a	n/a	n/a	n/a	ITI	poldrack-single-stim	s638	False	0
201.885	0.716	202.601	1.7831989699940822	draw_card	0.716	columbia_card_task_fmri	15.0	0.8333333333333334	89.0	-75.0	0.1666666666666666	12.0	1.0	2.0	0.1150242226231341	0.716	n/a	stim	poldrack-single-stim	s638	False	1
202.604	0.582	203.186	0.4195626063577171	draw_card	0.582	columbia_card_task_fmri	15.0	0.8181818181818181	89.0	-75.0	0.1818181818181818	12.0	2.0	2.0	1.284922809685206	0.582	2.0	stim	poldrack-single-stim	s638	False	0
203.94	1.5	203.189	n/a	-1.0	2.25	columbia_card_task_fmri	n/a	n/a	-1.0	n/a	n/a	n/a	n/a	n/a	n/a	n/a	n/a	ITI	poldrack-single-stim	s638	False	0
205.444	0.676	206.12	0.7831989699940822	draw_card	0.676	columbia_card_task_fmri	15.0	0.8	89.0	-65.0	0.2	15.0	1.0	3.0	-1.4237177889062167	0.676	n/a	stim	poldrack-single-stim	s638	False	1
206.123	0.623	206.746	-0.3596581728630601	draw_card	0.623	columbia_card_task_fmri	15.0	0.7857142857142857	89.0	-65.0	0.2142857142857142	15.0	2.0	3.0	-0.5988930038894296	0.623	n/a	stim	poldrack-single-stim	s638	False	1
206.749	1.28	208.029	-1.6783394915443812	draw_card	1.28	columbia_card_task_fmri	15.0	0.7692307692307692	89.0	-65.0	0.2307692307692307	15.0	3.0	3.0	0.2797765660516162	1.28	n/a	stim	poldrack-single-stim	s638	False	1
208.033	0.708	208.741	-3.216801030005918	draw_card	0.708	columbia_card_task_fmri	15.0	0.75	89.0	-65.0	0.25	15.0	4.0	3.0	1.2135185956673027	0.708	n/a	stim	poldrack-single-stim	s638	False	1
208.744	0.635	209.379	-5.034982848187735	draw_card	0.635	columbia_card_task_fmri	15.0	0.7272727272727273	89.0	-65.0	0.2727272727272727	15.0	5.0	3.0	2.200173987396276	0.635	n/a	stim	poldrack-single-stim	s638	False	1
209.381	0.356	209.737	-7.216801030005918	end_round	0.356	columbia_card_task_fmri	15.0	0.7	71.0	-65.0	0.3	15.0	6.0	3.0	3.2305843665794924	0.356	5.0	stim	poldrack-single-stim	s638	False	1
210.493	1.5	209.742	n/a	-1.0	2.454	columbia_card_task_fmri	n/a	n/a	-1.0	n/a	n/a	n/a	n/a	n/a	n/a	n/a	n/a	ITI	poldrack-single-stim	s638	False	0
212.201	1.5	213.701	0.0331989699940822	draw_card	1.5	columbia_card_task_fmri	14.0	0.8125	89.0	-70.0	0.1875	16.0	1.0	3.0	-0.6386670646458796	1.5	n/a	stim	poldrack-single-stim	s638	False	1
213.705	1.039	214.744	-1.0168010300059167	draw_card	1.039	columbia_card_task_fmri	14.0	0.8	89.0	-70.0	0.2	16.0	2.0	3.0	0.1739215285115491	1.039	n/a	stim	poldrack-single-stim	s638	False	1
214.747	0.836	215.583	-2.216801030005918	draw_card	0.836	columbia_card_task_fmri	14.0	0.7857142857142857	89.0	-70.0	0.2142857142857142	16.0	3.0	3.0	1.0401090804859834	0.836	n/a	stim	poldrack-single-stim	s638	False	1
215.587	0.317	215.904	-3.601416414621303	end_round	0.317	columbia_card_task_fmri	14.0	0.7692307692307692	71.0	-70.0	0.2307692307692307	16.0	4.0	3.0	1.9628350548886928	0.317	3.0	stim	poldrack-single-stim	s638	False	1
216.659	1.5	215.908	n/a	-1.0	3.27	columbia_card_task_fmri	n/a	n/a	-1.0	n/a	n/a	n/a	n/a	n/a	n/a	n/a	n/a	ITI	poldrack-single-stim	s638	False	0
219.183	1.251	220.434	-0.0293010300059177	draw_card	1.251	columbia_card_task_fmri	11.0	0.6875	89.0	-30.0	0.3125	16.0	1.0	5.0	-14.38587709299154	1.251	n/a	stim	poldrack-single-stim	s638	False	1
220.438	0.936	221.374	-0.8834676966725838	draw_card	0.936	columbia_card_task_fmri	11.0	0.6666666666666667	89.0	-30.0	0.3333333333333333	16.0	2.0	5.0	-14.06369196596192	0.936	2.0	stim	poldrack-single-stim	s638	False	0
222.128	1.5	221.377	n/a	-1.0	2.25	columbia_card_task_fmri	n/a	n/a	-1.0	n/a	n/a	n/a	n/a	n/a	n/a	n/a	n/a	ITI	poldrack-single-stim	s638	False	0
223.633	0.387	224.02	4.783198969994082	draw_card	0.387	columbia_card_task_fmri	15.0	0.8666666666666667	89.0	-75.0	0.1333333333333333	15.0	1.0	2.0	-2.82732312652346	0.387	n/a	stim	poldrack-single-stim	s638	False	1
224.022	0.736	224.758	3.926056112851226	draw_card	0.736	columbia_card_task_fmri	15.0	0.8571428571428572	89.0	-75.0	0.1428571428571428	15.0	2.0	2.0	-1.929480970539004	0.736	n/a	stim	poldrack-single-stim	s638	False	1
224.761	0.705	225.466	2.9370451238402357	draw_card	0.705	columbia_card_task_fmri	15.0	0.8461538461538461	89.0	-75.0	0.1538461538461538	15.0	3.0	2.0	-0.9523293850435904	0.705	n/a	stim	poldrack-single-stim	s638	False	1
225.468	0.468	225.936	1.7831989699940822	end_round	0.468	columbia_card_task_fmri	15.0	0.8333333333333334	71.0	-75.0	0.1666666666666666	15.0	4.0	2.0	0.1150242226231341	0.468	3.0	stim	poldrack-single-stim	s638	False	1
226.691	1.5	225.94	n/a	-1.0	2.25	columbia_card_task_fmri	n/a	n/a	-1.0	n/a	n/a	n/a	n/a	n/a	n/a	n/a	n/a	ITI	poldrack-single-stim	s638	False	0
228.196	0.629	228.825	6.516532303327416	draw_card	0.629	columbia_card_task_fmri	17.0	0.8666666666666667	89.0	-75.0	0.1333333333333333	15.0	1.0	2.0	-2.148580777402703	0.629	n/a	stim	poldrack-single-stim	s638	False	1
228.828	0.741	229.569	5.640341827136941	end_round	0.741	columbia_card_task_fmri	17.0	0.8571428571428572	71.0	-75.0	0.1428571428571428	15.0	2.0	2.0	-1.2307216507098602	0.741	1.0	stim	poldrack-single-stim	s638	False	1
230.326	1.5	229.575	n/a	-1.0	2.318	columbia_card_task_fmri	n/a	n/a	-1.0	n/a	n/a	n/a	n/a	n/a	n/a	n/a	n/a	ITI	poldrack-single-stim	s638	False	0
231.899	2.034	233.933	2.095698969994082	end_round	2.034	columbia_card_task_fmri	2.0	0.9375	71.0	-25.0	0.0625	16.0	1.0	1.0	-26.698805171261117	2.034	0.0	stim	poldrack-single-stim	s638	False	1
234.686	1.5	233.935	n/a	-1.0	2.726	columbia_card_task_fmri	n/a	n/a	-1.0	n/a	n/a	n/a	n/a	n/a	n/a	n/a	n/a	ITI	poldrack-single-stim	s638	False	0
236.667	0.904	237.571	4.283198969994082	draw_card	0.904	columbia_card_task_fmri	9.0	0.9375	89.0	-95.0	0.0625	16.0	1.0	1.0	-8.23589548152502	0.904	n/a	stim	poldrack-single-stim	s638	False	1
237.575	0.547	238.122	3.849865636660749	end_round	0.547	columbia_card_task_fmri	9.0	0.9333333333333332	71.0	-95.0	0.0666666666666666	16.0	2.0	1.0	-7.469991654423481	0.547	1.0	stim	poldrack-single-stim	s638	False	1
238.876	1.5	238.125	n/a	-1.0	2.386	columbia_card_task_fmri	n/a	n/a	-1.0	n/a	n/a	n/a	n/a	n/a	n/a	n/a	n/a	ITI	poldrack-single-stim	s638	False	0
240.517	0.992	241.509	5.845698969994082	draw_card	0.992	columbia_card_task_fmri	11.0	0.9375	89.0	-100.0	0.0625	16.0	1.0	1.0	-6.545434034617767	0.992	n/a	stim	poldrack-single-stim	s638	False	1
241.512	0.629	242.141	5.3831989699940825	draw_card	0.629	columbia_card_task_fmri	11.0	0.9333333333333332	89.0	-100.0	0.0666666666666666	16.0	2.0	1.0	-5.727736973837192	0.629	n/a	stim	poldrack-single-stim	s638	False	1
242.144	0.548	242.692	4.854627541422655	draw_card	0.548	columbia_card_task_fmri	11.0	0.9285714285714286	89.0	-100.0	0.0714285714285714	16.0	3.0	1.0	-4.830930384622874	0.548	n/a	stim	poldrack-single-stim	s638	False	1
242.696	0.325	243.021	4.244737431532545	end_round	0.325	columbia_card_task_fmri	11.0	0.9230769230769232	71.0	-100.0	0.0769230769230769	16.0	4.0	1.0	-3.84156139208298	0.325	3.0	stim	poldrack-single-stim	s638	False	1
243.776	1.5	243.025	n/a	-1.0	2.318	columbia_card_task_fmri	n/a	n/a	-1.0	n/a	n/a	n/a	n/a	n/a	n/a	n/a	n/a	ITI	poldrack-single-stim	s638	False	0
245.349	0.644	245.993	6.408198969994082	draw_card	0.644	columbia_card_task_fmri	16.0	0.875	89.0	-75.0	0.125	16.0	1.0	2.0	-3.3251601422108017	0.644	n/a	stim	poldrack-single-stim	s638	False	1
245.996	0.533	246.529	5.649865636660749	draw_card	0.533	columbia_card_task_fmri	16.0	0.8666666666666667	89.0	-75.0	0.1333333333333333	16.0	2.0	2.0	-2.487958128441793	0.533	2.0	stim	poldrack-single-stim	s638	False	0
247.285	1.5	246.534	n/a	-1.0	2.25	columbia_card_task_fmri	n/a	n/a	-1.0	n/a	n/a	n/a	n/a	n/a	n/a	n/a	n/a	ITI	poldrack-single-stim	s638	False	0
248.789	0.423	249.212	6.658198969994082	draw_card	0.423	columbia_card_task_fmri	17.0	0.875	89.0	-80.0	0.125	16.0	1.0	2.0	-1.3441063472760035	0.423	1.0	stim	poldrack-single-stim	s638	False	0
249.967	1.5	249.216	n/a	-1.0	2.25	columbia_card_task_fmri	n/a	n/a	-1.0	n/a	n/a	n/a	n/a	n/a	n/a	n/a	n/a	ITI	poldrack-single-stim	s638	False	0
262.475	0.924	263.399	0.94986563666075	draw_card	0.924	columbia_card_task_fmri	13.0	0.8333333333333334	89.0	-70.0	0.1666666666666666	6.0	1.0	1.0	-2.489733208501697	0.924	1.0	stim	poldrack-single-stim	s638	False	0
264.154	1.5	263.403	n/a	-1.0	2.454	columbia_card_task_fmri	n/a	n/a	-1.0	n/a	n/a	n/a	n/a	n/a	n/a	n/a	n/a	ITI	poldrack-single-stim	s638	False	0
265.862	0.852	266.714	0.94986563666075	draw_card	0.852	columbia_card_task_fmri	15.0	0.8333333333333334	89.0	-80.0	0.1666666666666666	6.0	1.0	1.0	1.975924384837377	0.852	n/a	stim	poldrack-single-stim	s638	False	1
266.718	0.665	267.383	-2.216801030005918	draw_card	0.665	columbia_card_task_fmri	15.0	0.8	89.0	-80.0	0.2	6.0	2.0	1.0	4.568452816306596	0.665	n/a	stim	poldrack-single-stim	s638	False	1
267.386	0.596	267.982	-6.966801030005918	draw_card	0.596	columbia_card_task_fmri	15.0	0.75	89.0	-80.0	0.25	6.0	3.0	1.0	7.701474542503348	0.596	3.0	stim	poldrack-single-stim	s638	False	0
268.737	1.5	267.986	n/a	-1.0	2.454	columbia_card_task_fmri	n/a	n/a	-1.0	n/a	n/a	n/a	n/a	n/a	n/a	n/a	n/a	ITI	poldrack-single-stim	s638	False	0
270.446	0.557	271.003	2.616532303327416	draw_card	0.557	columbia_card_task_fmri	16.0	0.8333333333333334	89.0	-75.0	0.1666666666666666	6.0	1.0	1.0	0.4871824113523999	0.557	n/a	stim	poldrack-single-stim	s638	False	1
271.008	1.932	272.94	-0.416801030005917	draw_card	1.932	columbia_card_task_fmri	16.0	0.8	89.0	-75.0	0.2	6.0	2.0	1.0	2.9702887464541448	1.932	n/a	stim	poldrack-single-stim	s638	False	1
272.944	0.917	273.861	-4.966801030005918	draw_card	0.917	columbia_card_task_fmri	16.0	0.75	89.0	-75.0	0.25	6.0	3.0	1.0	5.971120122906427	0.917	n/a	stim	poldrack-single-stim	s638	False	1
273.864	0.491	274.355	-12.55013436333925	end_round	0.491	columbia_card_task_fmri	16.0	0.6666666666666667	71.0	-75.0	0.3333333333333333	6.0	4.0	1.0	9.461494245071345	0.491	3.0	stim	poldrack-single-stim	s638	False	1
275.11	1.5	274.359	n/a	-1.0	2.522	columbia_card_task_fmri	n/a	n/a	-1.0	n/a	n/a	n/a	n/a	n/a	n/a	n/a	n/a	ITI	poldrack-single-stim	s638	False	0
276.887	0.824	277.711	3.783198969994082	draw_card	0.824	columbia_card_task_fmri	21.0	0.75	89.0	-55.0	0.25	8.0	1.0	2.0	-0.5161216559091741	0.824	n/a	stim	poldrack-single-stim	s638	False	1
277.715	0.566	278.281	1.0689132557083687	draw_card	0.566	columbia_card_task_fmri	21.0	0.7142857142857143	89.0	-55.0	0.2857142857142857	8.0	2.0	2.0	0.9062132833602804	0.566	n/a	stim	poldrack-single-stim	s638	False	1
278.286	1.177	279.463	-2.5501343633392484	draw_card	1.177	columbia_card_task_fmri	21.0	0.6666666666666667	89.0	-55.0	0.3333333333333333	8.0	3.0	2.0	2.3977299425671816	1.177	n/a	stim	poldrack-single-stim	s638	False	1
279.467	1.034	280.501	-7.616801030005918	draw_card	1.034	columbia_card_task_fmri	21.0	0.6	89.0	-55.0	0.4	8.0	4.0	2.0	3.8015582147890257	1.034	n/a	stim	poldrack-single-stim	s638	False	1
280.504	0.575	281.079	-15.216801030005918	end_round	0.575	columbia_card_task_fmri	21.0	0.5	71.0	-55.0	0.5	8.0	5.0	2.0	4.568452816306596	0.575	4.0	stim	poldrack-single-stim	s638	False	1
281.834	1.5	281.083	n/a	-1.0	2.386	columbia_card_task_fmri	n/a	n/a	-1.0	n/a	n/a	n/a	n/a	n/a	n/a	n/a	n/a	ITI	poldrack-single-stim	s638	False	0
283.474	1.556	285.03	5.033198969994082	draw_card	1.556	columbia_card_task_fmri	26.0	0.75	89.0	-65.0	0.25	8.0	1.0	2.0	5.971120122906427	1.556	n/a	stim	poldrack-single-stim	s638	False	1
285.034	1.392	286.426	1.7831989699940858	draw_card	1.392	columbia_card_task_fmri	26.0	0.7142857142857143	89.0	-65.0	0.2857142857142857	8.0	2.0	2.0	7.67490241526442	1.392	n/a	stim	poldrack-single-stim	s638	False	1
286.429	0.659	287.088	-2.5501343633392466	draw_card	0.659	columbia_card_task_fmri	26.0	0.6666666666666667	89.0	-65.0	0.3333333333333333	8.0	3.0	2.0	9.461494245071345	0.659	n/a	stim	poldrack-single-stim	s638	False	1
287.091	0.445	287.536	-8.616801030005918	end_round	0.445	columbia_card_task_fmri	26.0	0.6	71.0	-65.0	0.4	8.0	4.0	2.0	11.142998822904367	0.445	3.0	stim	poldrack-single-stim	s638	False	1
288.292	1.5	287.541	n/a	-1.0	2.454	columbia_card_task_fmri	n/a	n/a	-1.0	n/a	n/a	n/a	n/a	n/a	n/a	n/a	n/a	ITI	poldrack-single-stim	s638	False	0
289.999	1.246	291.245	0.1165323033274161	draw_card	1.246	columbia_card_task_fmri	15.0	0.7777777777777778	89.0	-60.0	0.2222222222222222	9.0	1.0	2.0	-2.24193681721329	1.246	n/a	stim	poldrack-single-stim	s638	False	1
291.249	1.099	292.348	-1.9668010300059175	draw_card	1.099	columbia_card_task_fmri	15.0	0.75	89.0	-60.0	0.25	9.0	2.0	2.0	-0.9484916311874798	1.099	2.0	stim	poldrack-single-stim	s638	False	0
293.102	1.5	292.351	n/a	-1.0	2.522	columbia_card_task_fmri	n/a	n/a	-1.0	n/a	n/a	n/a	n/a	n/a	n/a	n/a	n/a	ITI	poldrack-single-stim	s638	False	0
294.878	0.599	295.477	4.483198969994083	draw_card	0.599	columbia_card_task_fmri	13.0	0.9	89.0	-90.0	0.1	10.0	1.0	1.0	-2.521953346452875	0.599	n/a	stim	poldrack-single-stim	s638	False	1
295.482	0.598	296.08	3.3387545255496374	draw_card	0.598	columbia_card_task_fmri	13.0	0.8888888888888888	89.0	-90.0	0.1111111111111111	10.0	2.0	1.0	-1.0545069617732423	0.598	n/a	stim	poldrack-single-stim	s638	False	1
296.084	0.73	296.814	1.9081989699940825	draw_card	0.73	columbia_card_task_fmri	13.0	0.875	89.0	-90.0	0.125	10.0	3.0	1.0	0.6373263884942162	0.73	n/a	stim	poldrack-single-stim	s638	False	1
296.818	0.534	297.352	0.0689132557083704	end_round	0.534	columbia_card_task_fmri	13.0	0.8571428571428572	71.0	-90.0	0.1428571428571428	10.0	4.0	1.0	2.6132131406765	0.534	3.0	stim	poldrack-single-stim	s638	False	1
298.107	1.5	297.356	n/a	-1.0	2.522	columbia_card_task_fmri	n/a	n/a	-1.0	n/a	n/a	n/a	n/a	n/a	n/a	n/a	n/a	ITI	poldrack-single-stim	s638	False	0
299.884	0.754	300.638	5.783198969994082	draw_card	0.754	columbia_card_task_fmri	15.0	0.9	89.0	-95.0	0.1	10.0	1.0	1.0	-0.4252199826073735	0.754	n/a	stim	poldrack-single-stim	s638	False	1
300.642	1.213	301.855	4.560976747771859	end_round	1.213	columbia_card_task_fmri	15.0	0.8888888888888888	71.0	-95.0	0.1111111111111111	10.0	2.0	1.0	1.1422618436562004	1.213	1.0	stim	poldrack-single-stim	s638	False	1
302.61	1.5	301.859	n/a	-1.0	2.59	columbia_card_task_fmri	n/a	n/a	-1.0	n/a	n/a	n/a	n/a	n/a	n/a	n/a	n/a	ITI	poldrack-single-stim	s638	False	0
304.455	0.524	304.979	1.583198969994083	draw_card	0.524	columbia_card_task_fmri	16.0	0.8	89.0	-65.0	0.2	10.0	1.0	2.0	-1.0243297685858366	0.524	1.0	stim	poldrack-single-stim	s638	False	0
305.735	1.5	304.984	n/a	-1.0	2.454	columbia_card_task_fmri	n/a	n/a	-1.0	n/a	n/a	n/a	n/a	n/a	n/a	n/a	n/a	ITI	poldrack-single-stim	s638	False	0
307.444	2.004	309.448	0.2831989699940822	draw_card	2.004	columbia_card_task_fmri	7.0	0.9166666666666666	89.0	-95.0	0.0833333333333333	12.0	1.0	1.0	-5.225712426001664	2.004	1.0	stim	poldrack-single-stim	s638	False	0
310.204	1.5	309.453	n/a	-1.0	2.318	columbia_card_task_fmri	n/a	n/a	-1.0	n/a	n/a	n/a	n/a	n/a	n/a	n/a	n/a	ITI	poldrack-single-stim	s638	False	0
311.775	1.336	313.111	0.94986563666075	draw_card	1.336	columbia_card_task_fmri	14.0	0.8333333333333334	89.0	-75.0	0.1666666666666666	12.0	1.0	2.0	-0.2571223100155251	1.336	n/a	stim	poldrack-single-stim	s638	False	1
313.115	0.721	313.836	-0.3986192118241012	draw_card	0.721	columbia_card_task_fmri	14.0	0.8181818181818181	89.0	-75.0	0.1818181818181818	12.0	2.0	2.0	0.8997418021540184	0.721	n/a	stim	poldrack-single-stim	s638	False	1
313.84	0.658	314.498	-2.016801030005917	draw_card	0.658	columbia_card_task_fmri	14.0	0.8	89.0	-75.0	0.2	12.0	3.0	2.0	2.1712684839173164	0.658	n/a	stim	poldrack-single-stim	s638	False	1
314.503	0.727	315.23	-3.994578807783693	draw_card	0.727	columbia_card_task_fmri	14.0	0.7777777777777778	89.0	-75.0	0.2222222222222222	12.0	4.0	2.0	3.5704148885365043	0.727	n/a	stim	poldrack-single-stim	s638	False	1
315.233	0.775	316.008	-6.466801030005918	draw_card	0.775	columbia_card_task_fmri	14.0	0.75	89.0	-75.0	0.25	12.0	5.0	2.0	5.106000005680016	0.775	n/a	stim	poldrack-single-stim	s638	False	1
316.011	0.875	316.886	-9.645372458577343	draw_card	0.875	columbia_card_task_fmri	14.0	0.7142857142857143	89.0	-75.0	0.2857142857142857	12.0	6.0	2.0	6.772262353173886	0.875	n/a	stim	poldrack-single-stim	s638	False	1
316.889	0.722	317.611	-13.883467696672584	end_round	0.722	columbia_card_task_fmri	14.0	0.6666666666666667	71.0	-75.0	0.3333333333333333	12.0	7.0	2.0	8.519516966041166	0.722	6.0	stim	poldrack-single-stim	s638	False	1
318.367	1.5	317.616	n/a	-1.0	2.25	columbia_card_task_fmri	n/a	n/a	-1.0	n/a	n/a	n/a	n/a	n/a	n/a	n/a	n/a	ITI	poldrack-single-stim	s638	False	0
319.872	1.077	320.949	2.616532303327416	draw_card	1.077	columbia_card_task_fmri	15.0	0.8333333333333334	89.0	-70.0	0.1666666666666666	12.0	1.0	2.0	-1.745583676747145	1.077	n/a	stim	poldrack-single-stim	s638	False	1
320.952	1.209	322.161	1.3286535154486254	draw_card	1.209	columbia_card_task_fmri	15.0	0.8181818181818181	89.0	-70.0	0.1818181818181818	12.0	2.0	2.0	-0.6408616393104865	1.209	2.0	stim	poldrack-single-stim	s638	False	0
322.917	1.5	322.166	n/a	-1.0	2.658	columbia_card_task_fmri	n/a	n/a	-1.0	n/a	n/a	n/a	n/a	n/a	n/a	n/a	n/a	ITI	poldrack-single-stim	s638	False	0
324.83	1.538	326.368	0.5831989699940829	draw_card	1.538	columbia_card_task_fmri	16.0	0.8	89.0	-70.0	0.2	15.0	1.0	3.0	0.9728233656243148	1.538	n/a	stim	poldrack-single-stim	s638	False	1
326.371	1.583	327.954	-0.6453724585773466	draw_card	1.583	columbia_card_task_fmri	16.0	0.7857142857142857	89.0	-70.0	0.2142857142857142	15.0	2.0	3.0	1.8596902501269312	1.583	n/a	stim	poldrack-single-stim	s638	False	1
327.958	1.638	329.596	-2.0629548761597647	draw_card	1.638	columbia_card_task_fmri	16.0	0.7692307692307692	89.0	-70.0	0.2307692307692307	15.0	3.0	3.0	2.804442351343404	1.638	3.0	stim	poldrack-single-stim	s638	False	0
330.351	1.5	329.6	n/a	-1.0	2.454	columbia_card_task_fmri	n/a	n/a	-1.0	n/a	n/a	n/a	n/a	n/a	n/a	n/a	n/a	ITI	poldrack-single-stim	s638	False	0
332.061	0.728	332.789	0.9706989699940822	end_round	0.728	columbia_card_task_fmri	14.0	0.8125	71.0	-65.0	0.1875	16.0	1.0	3.0	-2.587166999619594	0.728	0.0	stim	poldrack-single-stim	s638	False	1
333.545	1.5	332.794	n/a	-1.0	2.386	columbia_card_task_fmri	n/a	n/a	-1.0	n/a	n/a	n/a	n/a	n/a	n/a	n/a	n/a	ITI	poldrack-single-stim	s638	False	0
335.186	0.61	335.796	0.7206989699940822	draw_card	0.61	columbia_card_task_fmri	16.0	0.8125	89.0	-75.0	0.1875	16.0	1.0	3.0	2.089796975977848	0.61	n/a	stim	poldrack-single-stim	s638	False	1
335.8	0.732	336.532	-0.416801030005917	draw_card	0.732	columbia_card_task_fmri	16.0	0.8	89.0	-75.0	0.2	16.0	2.0	3.0	2.9702887464541448	0.732	n/a	stim	poldrack-single-stim	s638	False	1
336.536	1.304	337.84	-1.716801030005916	end_round	1.304	columbia_card_task_fmri	16.0	0.7857142857142857	71.0	-75.0	0.2142857142857142	16.0	3.0	3.0	3.908848697991502	1.304	2.0	stim	poldrack-single-stim	s638	False	1
338.595	1.5	337.844	n/a	-1.0	2.59	columbia_card_task_fmri	n/a	n/a	-1.0	n/a	n/a	n/a	n/a	n/a	n/a	n/a	n/a	ITI	poldrack-single-stim	s638	False	0
340.441	0.591	341.032	4.983198969994083	draw_card	0.591	columbia_card_task_fmri	16.0	0.8666666666666667	89.0	-80.0	0.1333333333333333	15.0	1.0	2.0	-0.790955540341038	0.591	n/a	stim	poldrack-single-stim	s638	False	1
341.036	0.745	341.781	4.06891325570837	draw_card	0.745	columbia_card_task_fmri	16.0	0.8571428571428572	89.0	-80.0	0.1428571428571428	15.0	2.0	2.0	0.1669335514543419	0.745	n/a	stim	poldrack-single-stim	s638	False	1
341.785	0.67	342.455	3.013968200763312	draw_card	0.67	columbia_card_task_fmri	16.0	0.8461538461538461	89.0	-80.0	0.1538461538461538	15.0	3.0	2.0	1.20942424624603	0.67	n/a	stim	poldrack-single-stim	s638	False	1
342.459	0.67	343.129	1.783198969994084	draw_card	0.67	columbia_card_task_fmri	16.0	0.8333333333333334	89.0	-80.0	0.1666666666666666	15.0	4.0	2.0	2.348135480678728	0.67	n/a	stim	poldrack-single-stim	s638	False	1
343.133	0.718	343.851	0.3286535154486254	draw_card	0.718	columbia_card_task_fmri	16.0	0.8181818181818181	89.0	-80.0	0.1818181818181818	15.0	5.0	2.0	3.5962331461570543	0.718	n/a	stim	poldrack-single-stim	s638	False	1
343.855	0.518	344.373	-1.416801030005917	end_round	0.518	columbia_card_task_fmri	16.0	0.8	71.0	-80.0	0.2	15.0	6.0	2.0	4.968017699683585	0.518	5.0	stim	poldrack-single-stim	s638	False	1
345.129	1.5	344.378	n/a	-1.0	2.318	columbia_card_task_fmri	n/a	n/a	-1.0	n/a	n/a	n/a	n/a	n/a	n/a	n/a	n/a	ITI	poldrack-single-stim	s638	False	0
346.702	1.044	347.746	5.84986563666075	draw_card	1.044	columbia_card_task_fmri	17.0	0.8666666666666667	89.0	-80.0	0.1333333333333333	15.0	1.0	2.0	-0.4515220586863009	1.044	n/a	stim	poldrack-single-stim	s638	False	1
347.75	0.886	348.636	4.926056112851228	draw_card	0.886	columbia_card_task_fmri	17.0	0.8571428571428572	89.0	-80.0	0.1428571428571428	15.0	2.0	2.0	0.5163737552387104	0.886	n/a	stim	poldrack-single-stim	s638	False	1
348.64	1.103	349.743	3.860122046917159	draw_card	1.103	columbia_card_task_fmri	17.0	0.8461538461538461	89.0	-80.0	0.1538461538461538	15.0	3.0	2.0	1.5697531723536997	1.103	3.0	stim	poldrack-single-stim	s638	False	0
350.499	1.5	349.748	n/a	-1.0	2.59	columbia_card_task_fmri	n/a	n/a	-1.0	n/a	n/a	n/a	n/a	n/a	n/a	n/a	n/a	ITI	poldrack-single-stim	s638	False	0
352.343	0.597	352.94	1.7831989699940822	draw_card	0.597	columbia_card_task_fmri	1.0	0.9375	89.0	-15.0	0.0625	16.0	1.0	1.0	-29.20958613076419	0.597	1.0	stim	poldrack-single-stim	s638	False	0
353.695	1.5	352.944	n/a	-1.0	2.386	columbia_card_task_fmri	n/a	n/a	-1.0	n/a	n/a	n/a	n/a	n/a	n/a	n/a	n/a	ITI	poldrack-single-stim	s638	False	0
355.336	1.054	356.39	4.908198969994082	draw_card	1.054	columbia_card_task_fmri	10.0	0.9375	89.0	-100.0	0.0625	16.0	1.0	1.0	-6.78695934721836	1.054	n/a	stim	poldrack-single-stim	s638	False	1
356.395	0.629	357.024	4.449865636660749	draw_card	0.629	columbia_card_task_fmri	10.0	0.9333333333333332	89.0	-100.0	0.0666666666666666	16.0	2.0	1.0	-5.976660419755483	0.629	n/a	stim	poldrack-single-stim	s638	False	1
357.028	1.142	358.17	3.926056112851226	draw_card	1.142	columbia_card_task_fmri	10.0	0.9285714285714286	89.0	-100.0	0.0714285714285714	16.0	3.0	1.0	-5.087965641759716	1.142	n/a	stim	poldrack-single-stim	s638	False	1
358.175	0.715	358.89	3.321660508455621	draw_card	0.715	columbia_card_task_fmri	10.0	0.9230769230769232	89.0	-100.0	0.0769230769230769	16.0	4.0	1.0	-4.107543427340225	0.715	n/a	stim	poldrack-single-stim	s638	False	1
358.894	0.463	359.357	2.616532303327416	draw_card	0.463	columbia_card_task_fmri	10.0	0.9166666666666666	89.0	-100.0	0.0833333333333333	16.0	5.0	1.0	-3.01871941772194	0.463	n/a	stim	poldrack-single-stim	s638	False	1
359.361	0.441	359.802	1.7831989699940805	draw_card	0.441	columbia_card_task_fmri	10.0	0.9090909090909092	89.0	-100.0	0.0909090909090909	16.0	6.0	1.0	-1.8003499031716397	0.441	n/a	stim	poldrack-single-stim	s638	False	1
359.807	0.687	360.494	0.7831989699940822	draw_card	0.687	columbia_card_task_fmri	10.0	0.9	89.0	-100.0	0.1	16.0	7.0	1.0	-0.4252199826073735	0.687	n/a	stim	poldrack-single-stim	s638	False	1
360.499	0.52	361.019	-0.4390232522281392	draw_card	0.52	columbia_card_task_fmri	10.0	0.8888888888888888	89.0	-100.0	0.1111111111111111	16.0	8.0	1.0	1.1422618436562004	0.52	n/a	stim	poldrack-single-stim	s638	False	1
361.023	1.003	362.026	-1.9668010300059175	draw_card	1.003	columbia_card_task_fmri	10.0	0.875	89.0	-100.0	0.125	16.0	9.0	1.0	2.949394345417637	1.003	9.0	stim	poldrack-single-stim	s638	False	0
362.782	1.5	362.031	n/a	-1.0	2.318	columbia_card_task_fmri	n/a	n/a	-1.0	n/a	n/a	n/a	n/a	n/a	n/a	n/a	n/a	ITI	poldrack-single-stim	s638	False	0
364.354	1.369	365.723	5.533198969994082	draw_card	1.369	columbia_card_task_fmri	15.0	0.875	89.0	-75.0	0.125	16.0	1.0	2.0	-3.65529362972293	1.369	n/a	stim	poldrack-single-stim	s638	False	1
365.726	2.149	367.875	4.783198969994082	draw_card	2.149	columbia_card_task_fmri	15.0	0.8666666666666667	89.0	-75.0	0.1333333333333333	16.0	2.0	2.0	-2.82732312652346	2.149	n/a	stim	poldrack-single-stim	s638	False	1
367.88	1.311	369.191	3.926056112851226	end_round	1.311	columbia_card_task_fmri	15.0	0.8571428571428572	71.0	-75.0	0.1428571428571428	16.0	3.0	2.0	-1.929480970539004	1.311	2.0	stim	poldrack-single-stim	s638	False	1
369.948	1.5	369.197	n/a	-1.0	2.318	columbia_card_task_fmri	n/a	n/a	-1.0	n/a	n/a	n/a	n/a	n/a	n/a	n/a	n/a	ITI	poldrack-single-stim	s638	False	0
371.52	0.68	372.2	5.783198969994082	draw_card	0.68	columbia_card_task_fmri	16.0	0.875	89.0	-80.0	0.125	16.0	1.0	2.0	-1.674310207928592	0.68	n/a	stim	poldrack-single-stim	s638	False	1
372.206	0.721	372.927	4.983198969994083	draw_card	0.721	columbia_card_task_fmri	16.0	0.8666666666666667	89.0	-80.0	0.1333333333333333	16.0	2.0	2.0	-0.790955540341038	0.721	n/a	stim	poldrack-single-stim	s638	False	1
372.931	0.471	373.402	4.06891325570837	draw_card	0.471	columbia_card_task_fmri	16.0	0.8571428571428572	89.0	-80.0	0.1428571428571428	16.0	3.0	2.0	0.1669335514543419	0.471	n/a	stim	poldrack-single-stim	s638	False	1
373.405	0.555	373.96	3.013968200763312	draw_card	0.555	columbia_card_task_fmri	16.0	0.8461538461538461	89.0	-80.0	0.1538461538461538	16.0	4.0	2.0	1.20942424624603	0.555	n/a	stim	poldrack-single-stim	s638	False	1
373.965	0.409	374.374	1.783198969994084	end_round	0.409	columbia_card_task_fmri	16.0	0.8333333333333334	71.0	-80.0	0.1666666666666666	16.0	5.0	2.0	2.348135480678728	0.409	4.0	stim	poldrack-single-stim	s638	False	1
375.129	1.5	374.378	n/a	-1.0	2.318	columbia_card_task_fmri	n/a	n/a	-1.0	n/a	n/a	n/a	n/a	n/a	n/a	n/a	n/a	ITI	poldrack-single-stim	s638	False	0
376.703	1.201	377.904	2.970698969994082	draw_card	1.201	columbia_card_task_fmri	4.0	0.6875	89.0	-5.0	0.3125	16.0	1.0	5.0	-28.936609028662257	1.201	1.0	stim	poldrack-single-stim	s638	False	0
378.659	1.5	377.908	n/a	-1.0	2.386	columbia_card_task_fmri	n/a	n/a	-1.0	n/a	n/a	n/a	n/a	n/a	n/a	n/a	n/a	ITI	poldrack-single-stim	s638	False	0
380.3	0.722	381.022	0.1165323033274179	draw_card	0.722	columbia_card_task_fmri	14.0	0.8333333333333334	89.0	-80.0	0.1666666666666666	6.0	1.0	1.0	1.603723203989034	0.722	n/a	stim	poldrack-single-stim	s638	False	1
381.027	1.041	382.068	-3.016801030005917	draw_card	1.041	columbia_card_task_fmri	14.0	0.8	89.0	-80.0	0.2	6.0	2.0	1.0	4.1688971753079045	1.041	n/a	stim	poldrack-single-stim	s638	False	1
382.071	0.517	382.588	-7.716801030005918	draw_card	0.517	columbia_card_task_fmri	14.0	0.75	89.0	-80.0	0.25	6.0	3.0	1.0	7.268872422187954	0.517	n/a	stim	poldrack-single-stim	s638	False	1
382.593	0.4	382.993	-15.550134363339248	draw_card	0.4	columbia_card_task_fmri	14.0	0.6666666666666667	89.0	-80.0	0.3333333333333333	6.0	4.0	1.0	10.874526444779391	0.4	4.0	stim	poldrack-single-stim	s638	False	0
383.749	1.5	382.998	n/a	-1.0	2.25	columbia_card_task_fmri	n/a	n/a	-1.0	n/a	n/a	n/a	n/a	n/a	n/a	n/a	n/a	ITI	poldrack-single-stim	s638	False	0
385.254	0.562	385.816	1.7831989699940822	draw_card	0.562	columbia_card_task_fmri	15.0	0.8333333333333334	89.0	-75.0	0.1666666666666666	6.0	1.0	1.0	0.1150242226231341	0.562	n/a	stim	poldrack-single-stim	s638	False	1
385.821	0.383	386.204	-1.2168010300059178	draw_card	0.383	columbia_card_task_fmri	15.0	0.8	89.0	-75.0	0.2	6.0	2.0	1.0	2.570773182194145	0.383	2.0	stim	poldrack-single-stim	s638	False	0
386.96	1.5	386.209	n/a	-1.0	2.386	columbia_card_task_fmri	n/a	n/a	-1.0	n/a	n/a	n/a	n/a	n/a	n/a	n/a	n/a	ITI	poldrack-single-stim	s638	False	0
388.602	0.576	389.178	3.44986563666075	draw_card	0.576	columbia_card_task_fmri	16.0	0.8333333333333334	89.0	-70.0	0.1666666666666666	6.0	1.0	1.0	-1.3734879174412455	0.576	n/a	stim	poldrack-single-stim	s638	False	1
389.182	0.496	389.678	0.5831989699940829	draw_card	0.496	columbia_card_task_fmri	16.0	0.8	89.0	-70.0	0.2	6.0	2.0	1.0	0.9728233656243148	0.496	n/a	stim	poldrack-single-stim	s638	False	1
389.682	0.645	390.327	-3.716801030005918	draw_card	0.645	columbia_card_task_fmri	16.0	0.75	89.0	-70.0	0.25	6.0	3.0	1.0	3.808398647756192	0.645	n/a	stim	poldrack-single-stim	s638	False	1
390.331	0.386	390.717	-10.883467696672582	end_round	0.386	columbia_card_task_fmri	16.0	0.6666666666666667	71.0	-70.0	0.3333333333333333	6.0	4.0	1.0	7.1066234829587245	0.386	3.0	stim	poldrack-single-stim	s638	False	1
391.473	1.5	390.722	n/a	-1.0	2.59	columbia_card_task_fmri	n/a	n/a	-1.0	n/a	n/a	n/a	n/a	n/a	n/a	n/a	n/a	ITI	poldrack-single-stim	s638	False	0
393.318	1.033	394.351	4.033198969994082	draw_card	1.033	columbia_card_task_fmri	23.0	0.75	89.0	-60.0	0.25	8.0	1.0	2.0	2.5109009662956936	1.033	n/a	stim	poldrack-single-stim	s638	False	1
394.354	1.046	395.4	1.0689132557083705	draw_card	1.046	columbia_card_task_fmri	23.0	0.7142857142857143	89.0	-60.0	0.2857142857142857	8.0	2.0	2.0	4.064592705978747	1.046	n/a	stim	poldrack-single-stim	s638	False	1
395.405	1.11	396.515	-2.8834676966725823	draw_card	1.11	columbia_card_task_fmri	23.0	0.6666666666666667	89.0	-60.0	0.3333333333333333	8.0	3.0	2.0	5.693825283967541	1.11	n/a	stim	poldrack-single-stim	s638	False	1
396.519	0.614	397.133	-8.416801030005919	draw_card	0.614	columbia_card_task_fmri	23.0	0.6	89.0	-60.0	0.4	8.0	4.0	2.0	7.227248140982496	0.614	4.0	stim	poldrack-single-stim	s638	False	0
397.889	1.5	397.138	n/a	-1.0	2.658	columbia_card_task_fmri	n/a	n/a	-1.0	n/a	n/a	n/a	n/a	n/a	n/a	n/a	n/a	ITI	poldrack-single-stim	s638	False	0
399.802	1.394	401.196	4.533198969994082	draw_card	1.394	columbia_card_task_fmri	27.0	0.75	89.0	-70.0	0.25	8.0	1.0	2.0	8.566704145053706	1.394	n/a	stim	poldrack-single-stim	s638	False	1
401.201	0.436	401.637	1.068913255708367	draw_card	0.436	columbia_card_task_fmri	27.0	0.7142857142857143	89.0	-70.0	0.2857142857142857	8.0	2.0	2.0	10.3830370449554	0.436	n/a	stim	poldrack-single-stim	s638	False	1
401.642	0.522	402.164	-3.5501343633392466	draw_card	0.522	columbia_card_task_fmri	27.0	0.6666666666666667	89.0	-70.0	0.3333333333333333	8.0	3.0	2.0	12.287631632525231	0.522	n/a	stim	poldrack-single-stim	s638	False	1
402.17	0.3	402.47	-10.01680103000592	end_round	0.3	columbia_card_task_fmri	27.0	0.6	71.0	-70.0	0.4	8.0	4.0	2.0	14.080183015086895	0.3	3.0	stim	poldrack-single-stim	s638	False	1
403.226	1.5	402.475	n/a	-1.0	2.386	columbia_card_task_fmri	n/a	n/a	-1.0	n/a	n/a	n/a	n/a	n/a	n/a	n/a	n/a	ITI	poldrack-single-stim	s638	False	0
404.867	0.936	405.803	-0.216801030005916	draw_card	0.936	columbia_card_task_fmri	16.0	0.7777777777777778	89.0	-65.0	0.2222222222222222	9.0	1.0	2.0	0.2487329616730704	0.936	1.0	stim	poldrack-single-stim	s638	False	0
406.56	1.5	405.809	n/a	-1.0	2.386	columbia_card_task_fmri	n/a	n/a	-1.0	n/a	n/a	n/a	n/a	n/a	n/a	n/a	n/a	ITI	poldrack-single-stim	s638	False	0
408.201	0.962	409.163	4.983198969994083	draw_card	0.962	columbia_card_task_fmri	13.0	0.9	89.0	-85.0	0.1	10.0	1.0	1.0	-4.019335067819743	0.962	n/a	stim	poldrack-single-stim	s638	False	1
409.167	0.913	410.08	3.8943100811051927	draw_card	0.913	columbia_card_task_fmri	13.0	0.8888888888888888	89.0	-85.0	0.1111111111111111	10.0	2.0	1.0	-2.623355389853689	0.913	2.0	stim	poldrack-single-stim	s638	False	0
410.836	1.5	410.085	n/a	-1.0	2.25	columbia_card_task_fmri	n/a	n/a	-1.0	n/a	n/a	n/a	n/a	n/a	n/a	n/a	n/a	ITI	poldrack-single-stim	s638	False	0
412.342	0.794	413.136	-0.0168010300059167	draw_card	0.794	columbia_card_task_fmri	14.0	0.8	89.0	-65.0	0.2	10.0	1.0	2.0	-1.8230903525087463	0.794	n/a	stim	poldrack-single-stim	s638	False	1
413.14	1.484	414.624	-1.7723565855614714	draw_card	1.484	columbia_card_task_fmri	14.0	0.7777777777777778	89.0	-65.0	0.2222222222222222	10.0	2.0	2.0	-0.5815537594027163	1.484	n/a	stim	poldrack-single-stim	s638	False	1
414.629	0.923	415.552	-3.966801030005918	draw_card	0.923	columbia_card_task_fmri	14.0	0.75	89.0	-65.0	0.25	10.0	3.0	2.0	0.7810856946888904	0.923	3.0	stim	poldrack-single-stim	s638	False	0
416.309	1.5	415.558	n/a	-1.0	2.318	columbia_card_task_fmri	n/a	n/a	-1.0	n/a	n/a	n/a	n/a	n/a	n/a	n/a	n/a	ITI	poldrack-single-stim	s638	False	0
417.882	0.759	418.641	1.3831989699940836	draw_card	0.759	columbia_card_task_fmri	17.0	0.8	89.0	-70.0	0.2	10.0	1.0	2.0	1.3722931802422238	0.759	n/a	stim	poldrack-single-stim	s638	False	1
418.646	0.668	419.314	-0.5501343633392499	draw_card	0.668	columbia_card_task_fmri	17.0	0.7777777777777778	89.0	-70.0	0.2222222222222222	10.0	2.0	2.0	2.739921511757693	0.668	n/a	stim	poldrack-single-stim	s638	False	1
419.32	1.136	420.456	-2.966801030005918	end_round	1.136	columbia_card_task_fmri	17.0	0.75	71.0	-70.0	0.25	10.0	3.0	2.0	4.240921442565799	1.136	2.0	stim	poldrack-single-stim	s638	False	1
421.214	1.5	420.463	n/a	-1.0	2.25	columbia_card_task_fmri	n/a	n/a	-1.0	n/a	n/a	n/a	n/a	n/a	n/a	n/a	n/a	ITI	poldrack-single-stim	s638	False	0
422.72	1.105	423.825	0.1165323033274161	draw_card	1.105	columbia_card_task_fmri	13.0	0.8333333333333334	89.0	-75.0	0.1666666666666666	12.0	1.0	2.0	-0.6292567903487623	1.105	1.0	stim	poldrack-single-stim	s638	False	0
424.583	1.5	423.832	n/a	-1.0	2.25	columbia_card_task_fmri	n/a	n/a	-1.0	n/a	n/a	n/a	n/a	n/a	n/a	n/a	n/a	ITI	poldrack-single-stim	s638	False	0
426.088	1.352	427.44	1.783198969994084	draw_card	1.352	columbia_card_task_fmri	14.0	0.8333333333333334	89.0	-70.0	0.1666666666666666	12.0	1.0	2.0	-2.117665606512695	1.352	n/a	stim	poldrack-single-stim	s638	False	1
427.444	0.717	428.161	0.5104716972668071	draw_card	0.717	columbia_card_task_fmri	14.0	0.8181818181818181	89.0	-70.0	0.1818181818181818	12.0	2.0	2.0	-1.0259802054280345	0.717	n/a	stim	poldrack-single-stim	s638	False	1
428.166	0.782	428.948	-1.0168010300059167	draw_card	0.782	columbia_card_task_fmri	14.0	0.8	89.0	-70.0	0.2	12.0	3.0	2.0	0.1739215285115491	0.782	n/a	stim	poldrack-single-stim	s638	False	1
428.954	0.825	429.779	-2.883467696672584	draw_card	0.825	columbia_card_task_fmri	14.0	0.7777777777777778	89.0	-70.0	0.2222222222222222	12.0	4.0	2.0	1.4942693195239445	0.825	4.0	stim	poldrack-single-stim	s638	False	0
430.535	1.5	429.784	n/a	-1.0	2.386	columbia_card_task_fmri	n/a	n/a	-1.0	n/a	n/a	n/a	n/a	n/a	n/a	n/a	n/a	ITI	poldrack-single-stim	s638	False	0
432.177	0.903	433.08	1.783198969994084	draw_card	0.903	columbia_card_task_fmri	16.0	0.8333333333333334	89.0	-80.0	0.1666666666666666	12.0	1.0	2.0	2.348135480678728	0.903	n/a	stim	poldrack-single-stim	s638	False	1
433.085	0.84	433.925	0.3286535154486254	draw_card	0.84	columbia_card_task_fmri	16.0	0.8181818181818181	89.0	-80.0	0.1818181818181818	12.0	2.0	2.0	3.5962331461570543	0.84	2.0	stim	poldrack-single-stim	s638	False	0
434.682	1.5	433.931	n/a	-1.0	2.386	columbia_card_task_fmri	n/a	n/a	-1.0	n/a	n/a	n/a	n/a	n/a	n/a	n/a	n/a	ITI	poldrack-single-stim	s638	False	0
436.325	0.811	437.136	1.583198969994083	draw_card	0.811	columbia_card_task_fmri	16.0	0.8	89.0	-65.0	0.2	15.0	1.0	3.0	-1.0243297685858366	0.811	n/a	stim	poldrack-single-stim	s638	False	1
437.142	0.776	437.918	0.4260561128512263	draw_card	0.776	columbia_card_task_fmri	16.0	0.7857142857142857	89.0	-65.0	0.2142857142857142	15.0	2.0	3.0	-0.1891637477164494	0.776	n/a	stim	poldrack-single-stim	s638	False	1
437.923	0.837	438.76	-0.9091087223136112	draw_card	0.837	columbia_card_task_fmri	16.0	0.7692307692307692	89.0	-65.0	0.2307692307692307	15.0	3.0	3.0	0.7005204739581714	0.837	n/a	stim	poldrack-single-stim	s638	False	1
438.765	0.833	439.598	-2.466801030005918	draw_card	0.833	columbia_card_task_fmri	16.0	0.75	89.0	-65.0	0.25	15.0	4.0	3.0	1.6459657846820122	0.833	4.0	stim	poldrack-single-stim	s638	False	0
440.355	1.5	439.604	n/a	-1.0	2.726	columbia_card_task_fmri	n/a	n/a	-1.0	n/a	n/a	n/a	n/a	n/a	n/a	n/a	n/a	ITI	poldrack-single-stim	s638	False	0
442.338	0.804	443.142	-0.0918010300059177	end_round	0.804	columbia_card_task_fmri	15.0	0.8125	71.0	-75.0	0.1875	16.0	1.0	3.0	1.6999810152978585	0.804	0.0	stim	poldrack-single-stim	s638	False	1
443.899	1.5	443.148	n/a	-1.0	2.454	columbia_card_task_fmri	n/a	n/a	-1.0	n/a	n/a	n/a	n/a	n/a	n/a	n/a	n/a	ITI	poldrack-single-stim	s638	False	0
445.609	0.854	446.463	0.4706989699940822	draw_card	0.854	columbia_card_task_fmri	14.0	0.6875	89.0	-35.0	0.3125	16.0	1.0	5.0	-10.691361033710066	0.854	n/a	stim	poldrack-single-stim	s638	False	1
446.469	1.173	447.642	-0.5501343633392499	draw_card	1.173	columbia_card_task_fmri	14.0	0.6666666666666667	89.0	-35.0	0.3333333333333333	16.0	2.0	5.0	-10.305814037896145	1.173	n/a	stim	poldrack-single-stim	s638	False	1
447.647	0.97	448.617	-1.7168010300059178	draw_card	0.97	columbia_card_task_fmri	14.0	0.6428571428571428	89.0	-35.0	0.3571428571428571	16.0	3.0	5.0	-9.927030613015887	0.97	n/a	stim	poldrack-single-stim	s638	False	1
448.623	0.672	449.295	-3.062954876159763	draw_card	0.672	columbia_card_task_fmri	14.0	0.6153846153846154	89.0	-35.0	0.3846153846153846	16.0	4.0	5.0	-9.568054131584123	0.672	4.0	stim	poldrack-single-stim	s638	False	0
450.053	1.5	449.302	n/a	-1.0	2.318	columbia_card_task_fmri	n/a	n/a	-1.0	n/a	n/a	n/a	n/a	n/a	n/a	n/a	n/a	ITI	poldrack-single-stim	s638	False	0
451.628	0.766	452.394	5.649865636660749	draw_card	0.766	columbia_card_task_fmri	16.0	0.8666666666666667	89.0	-75.0	0.1333333333333333	15.0	1.0	2.0	-2.487958128441793	0.766	n/a	stim	poldrack-single-stim	s638	False	1
452.399	0.87	453.269	4.783198969994084	draw_card	0.87	columbia_card_task_fmri	16.0	0.8571428571428572	89.0	-75.0	0.1428571428571428	15.0	2.0	2.0	-1.5801073124072182	0.87	n/a	stim	poldrack-single-stim	s638	False	1
453.275	1.085	454.36	3.783198969994082	draw_card	1.085	columbia_card_task_fmri	16.0	0.8461538461538461	89.0	-75.0	0.1538461538461538	15.0	3.0	2.0	-0.592065016063863	1.085	n/a	stim	poldrack-single-stim	s638	False	1
454.365	0.852	455.217	2.616532303327416	draw_card	0.852	columbia_card_task_fmri	16.0	0.8333333333333334	89.0	-75.0	0.1666666666666666	15.0	4.0	2.0	0.4871824113523999	0.852	n/a	stim	poldrack-single-stim	s638	False	1
455.222	0.668	455.89	1.2377444245395357	draw_card	0.668	columbia_card_task_fmri	16.0	0.8181818181818181	89.0	-75.0	0.1818181818181818	15.0	5.0	2.0	1.6701150830925613	0.668	n/a	stim	poldrack-single-stim	s638	False	1
455.895	0.666	456.561	-0.416801030005917	draw_card	0.666	columbia_card_task_fmri	16.0	0.8	89.0	-75.0	0.2	15.0	6.0	2.0	2.9702887464541448	0.666	n/a	stim	poldrack-single-stim	s638	False	1
456.566	0.806	457.372	-2.4390232522281377	draw_card	0.806	columbia_card_task_fmri	16.0	0.7777777777777778	89.0	-75.0	0.2222222222222222	15.0	7.0	2.0	4.400951534130797	0.806	7.0	stim	poldrack-single-stim	s638	False	0
458.128	1.5	457.377	n/a	-1.0	2.318	columbia_card_task_fmri	n/a	n/a	-1.0	n/a	n/a	n/a	n/a	n/a	n/a	n/a	n/a	ITI	poldrack-single-stim	s638	False	0
459.702	0.77	460.472	6.316532303327415	draw_card	0.77	columbia_card_task_fmri	16.0	0.8666666666666667	89.0	-70.0	0.1333333333333333	15.0	1.0	2.0	-4.184651001569932	0.77	1.0	stim	poldrack-single-stim	s638	False	0
461.227	1.5	460.476	n/a	-1.0	2.59	columbia_card_task_fmri	n/a	n/a	-1.0	n/a	n/a	n/a	n/a	n/a	n/a	n/a	n/a	ITI	poldrack-single-stim	s638	False	0
463.071	0.586	463.657	3.658198969994082	draw_card	0.586	columbia_card_task_fmri	8.0	0.9375	89.0	-90.0	0.0625	16.0	1.0	1.0	-9.684412969104688	0.586	1.0	stim	poldrack-single-stim	s638	False	0
464.413	1.5	463.662	n/a	-1.0	2.726	columbia_card_task_fmri	n/a	n/a	-1.0	n/a	n/a	n/a	n/a	n/a	n/a	n/a	n/a	ITI	poldrack-single-stim	s638	False	0
466.396	0.779	467.175	5.220698969994082	draw_card	0.779	columbia_card_task_fmri	10.0	0.9375	89.0	-95.0	0.0625	16.0	1.0	1.0	-7.994433269894902	0.779	n/a	stim	poldrack-single-stim	s638	False	1
467.181	1.239	468.42	4.783198969994083	draw_card	1.239	columbia_card_task_fmri	10.0	0.9333333333333332	89.0	-95.0	0.0666666666666666	16.0	2.0	1.0	-7.221129467086691	1.239	n/a	stim	poldrack-single-stim	s638	False	1
468.426	1.291	469.717	4.283198969994083	draw_card	1.291	columbia_card_task_fmri	10.0	0.9285714285714286	89.0	-95.0	0.0714285714285714	16.0	3.0	1.0	-6.372998345677409	1.291	3.0	stim	poldrack-single-stim	s638	False	0
470.473	1.5	469.722	n/a	-1.0	2.522	columbia_card_task_fmri	n/a	n/a	-1.0	n/a	n/a	n/a	n/a	n/a	n/a	n/a	n/a	ITI	poldrack-single-stim	s638	False	0
472.252	1.071	473.323	6.158198969994082	draw_card	1.071	columbia_card_task_fmri	15.0	0.875	89.0	-70.0	0.125	16.0	1.0	2.0	-5.305755042425222	1.071	n/a	stim	poldrack-single-stim	s638	False	1
473.328	0.672	474.0	5.449865636660748	draw_card	0.672	columbia_card_task_fmri	15.0	0.8666666666666667	89.0	-70.0	0.1333333333333333	16.0	2.0	2.0	-4.52394761808285	0.672	n/a	stim	poldrack-single-stim	s638	False	1
474.006	0.561	474.567	4.64034182713694	draw_card	0.561	columbia_card_task_fmri	15.0	0.8571428571428572	89.0	-70.0	0.1428571428571428	16.0	3.0	2.0	-3.67615443027022	0.561	n/a	stim	poldrack-single-stim	s638	False	1
474.573	0.571	475.144	3.706275893071004	draw_card	0.571	columbia_card_task_fmri	15.0	0.8461538461538461	89.0	-70.0	0.1538461538461538	16.0	4.0	2.0	-2.7534622154550554	0.571	n/a	stim	poldrack-single-stim	s638	False	1
475.15	0.267	475.417	2.616532303327416	end_round	0.267	columbia_card_task_fmri	15.0	0.8333333333333334	71.0	-70.0	0.1666666666666666	16.0	5.0	2.0	-1.745583676747145	0.267	4.0	stim	poldrack-single-stim	s638	False	1
476.174	1.5	475.423	n/a	-1.0	3.134	columbia_card_task_fmri	n/a	n/a	-1.0	n/a	n/a	n/a	n/a	n/a	n/a	n/a	n/a	ITI	poldrack-single-stim	s638	False	0
478.563	1.368	479.931	5.158198969994082	draw_card	1.368	columbia_card_task_fmri	16.0	0.875	89.0	-85.0	0.125	16.0	1.0	2.0	-0.0231891381029782	1.368	n/a	stim	poldrack-single-stim	s638	False	1
479.936	1.073	481.009	4.316532303327415	draw_card	1.073	columbia_card_task_fmri	16.0	0.8666666666666667	89.0	-85.0	0.1333333333333333	16.0	2.0	2.0	0.9063108995791892	1.073	n/a	stim	poldrack-single-stim	s638	False	1
481.015	1.069	482.084	3.354627541422655	draw_card	1.069	columbia_card_task_fmri	16.0	0.8571428571428572	89.0	-85.0	0.1428571428571428	16.0	3.0	2.0	1.9142307973279105	1.069	n/a	stim	poldrack-single-stim	s638	False	1
482.09	0.61	482.7	2.244737431532542	draw_card	0.61	columbia_card_task_fmri	16.0	0.8461538461538461	89.0	-85.0	0.1538461538461538	16.0	4.0	2.0	3.011162226014136	0.61	n/a	stim	poldrack-single-stim	s638	False	1
482.705	0.535	483.24	0.94986563666075	draw_card	0.535	columbia_card_task_fmri	16.0	0.8333333333333334	89.0	-85.0	0.1666666666666666	16.0	5.0	2.0	4.209329401288798	0.535	n/a	stim	poldrack-single-stim	s638	False	1
483.245	0.735	483.98	-0.5804373936422829	draw_card	0.735	columbia_card_task_fmri	16.0	0.8181818181818181	89.0	-85.0	0.1818181818181818	16.0	6.0	2.0	5.522583989785858	0.735	n/a	stim	poldrack-single-stim	s638	False	1
483.986	0.313	484.299	-2.4168010300059173	end_round	0.313	columbia_card_task_fmri	16.0	0.8	71.0	-85.0	0.2	16.0	7.0	2.0	6.965971163397128	0.313	6.0	stim	poldrack-single-stim	s638	False	1
485.055	1.5	484.304	n/a	-1.0	2.386	columbia_card_task_fmri	n/a	n/a	-1.0	n/a	n/a	n/a	n/a	n/a	n/a	n/a	n/a	ITI	poldrack-single-stim	s638	False	0
