onset	duration	block_duration	condition	correct	correct_response	experiment_exp_id	key_press	response_time	stim_color	stim_word	trial_id	trial_type	worker_id	junk
3.525	1.5	2.0	incongruent	1.0	82.0	stroop	82	1.18	green	red	stim	incongruent	s638_2	False
5.53	1.5	2.544	congruent	1.0	82.0	stroop	82	0.635	green	green	stim	congruent	s638_2	False
8.077	1.5	2.136	congruent	1.0	71.0	stroop	71	0.488	blue	blue	stim	congruent	s638_2	False
10.218	1.5	2.0	congruent	1.0	82.0	stroop	82	0.544	green	green	stim	congruent	s638_2	False
12.223	1.5	2.0	congruent	1.0	71.0	stroop	71	0.51	blue	blue	stim	congruent	s638_2	False
14.229	1.5	2.272	congruent	1.0	82.0	stroop	82	0.534	green	green	stim	congruent	s638_2	False
16.506	1.5	2.0	incongruent	0.0	82.0	stroop	89	0.531	green	red	stim	incongruent	s638_2	False
18.511	1.5	2.0	congruent	1.0	89.0	stroop	89	0.637	red	red	stim	congruent	s638_2	False
20.514	1.5	2.136	incongruent	1.0	71.0	stroop	71	0.828	blue	red	stim	incongruent	s638_2	False
22.655	1.5	2.0	incongruent	1.0	89.0	stroop	89	1.118	red	blue	stim	incongruent	s638_2	False
24.66	1.5	2.272	incongruent	1.0	71.0	stroop	71	0.829	blue	red	stim	incongruent	s638_2	False
26.935	1.5	2.136	congruent	1.0	89.0	stroop	89	0.677	red	red	stim	congruent	s638_2	False
29.074	1.5	2.408	incongruent	1.0	82.0	stroop	82	0.671	green	red	stim	incongruent	s638_2	False
31.487	1.5	2.0	congruent	1.0	82.0	stroop	82	0.51	green	green	stim	congruent	s638_2	False
33.492	1.5	2.0	congruent	1.0	71.0	stroop	71	0.502	blue	blue	stim	congruent	s638_2	False
35.498	1.5	2.816	incongruent	1.0	89.0	stroop	89	0.709	red	green	stim	incongruent	s638_2	False
38.319	1.5	2.0	incongruent	1.0	89.0	stroop	89	0.833	red	blue	stim	incongruent	s638_2	False
40.323	1.5	2.0	incongruent	1.0	82.0	stroop	82	0.933	green	red	stim	incongruent	s638_2	False
42.327	1.5	2.136	congruent	1.0	82.0	stroop	82	0.497	green	green	stim	congruent	s638_2	False
44.468	1.5	2.0	congruent	1.0	82.0	stroop	82	0.493	green	green	stim	congruent	s638_2	False
46.473	1.5	2.0	incongruent	1.0	71.0	stroop	71	0.693	blue	green	stim	incongruent	s638_2	False
48.479	1.5	2.0	congruent	1.0	82.0	stroop	82	0.573	green	green	stim	congruent	s638_2	False
50.484	1.5	2.0	incongruent	1.0	89.0	stroop	89	0.653	red	green	stim	incongruent	s638_2	False
52.489	1.5	2.0	congruent	1.0	82.0	stroop	82	0.559	green	green	stim	congruent	s638_2	False
54.494	1.5	2.0	incongruent	1.0	82.0	stroop	82	1.014	green	blue	stim	incongruent	s638_2	False
56.499	1.5	2.0	congruent	1.0	82.0	stroop	82	0.503	green	green	stim	congruent	s638_2	False
58.505	1.5	2.272	incongruent	1.0	71.0	stroop	71	0.746	blue	red	stim	incongruent	s638_2	False
60.782	1.5	2.0	incongruent	1.0	71.0	stroop	71	0.595	blue	green	stim	incongruent	s638_2	False
62.787	1.5	2.136	congruent	1.0	82.0	stroop	82	0.513	green	green	stim	congruent	s638_2	False
64.926	1.5	2.0	congruent	1.0	89.0	stroop	89	0.523	red	red	stim	congruent	s638_2	False
66.929	1.5	2.136	congruent	1.0	71.0	stroop	71	0.555	blue	blue	stim	congruent	s638_2	False
69.07	1.5	2.0	congruent	1.0	82.0	stroop	82	0.449	green	green	stim	congruent	s638_2	False
71.076	1.5	2.0	congruent	1.0	82.0	stroop	82	0.583	green	green	stim	congruent	s638_2	False
73.081	1.5	2.0	incongruent	1.0	71.0	stroop	71	0.754	blue	red	stim	incongruent	s638_2	False
75.088	1.5	2.272	incongruent	1.0	82.0	stroop	82	0.457	green	blue	stim	incongruent	s638_2	False
77.364	1.5	2.0	incongruent	1.0	89.0	stroop	89	0.551	red	blue	stim	incongruent	s638_2	False
79.366	1.5	2.136	incongruent	1.0	82.0	stroop	82	0.569	green	blue	stim	incongruent	s638_2	False
81.504	1.5	2.408	congruent	1.0	89.0	stroop	89	0.592	red	red	stim	congruent	s638_2	False
83.918	1.5	2.272	incongruent	1.0	71.0	stroop	71	0.826	blue	red	stim	incongruent	s638_2	False
86.193	1.5	2.68	congruent	1.0	89.0	stroop	89	0.497	red	red	stim	congruent	s638_2	False
88.878	1.5	2.0	congruent	1.0	82.0	stroop	82	0.463	green	green	stim	congruent	s638_2	False
90.881	1.5	2.408	congruent	1.0	71.0	stroop	71	0.537	blue	blue	stim	congruent	s638_2	False
93.296	1.5	2.136	congruent	1.0	89.0	stroop	89	0.502	red	red	stim	congruent	s638_2	False
95.435	1.5	2.68	incongruent	1.0	71.0	stroop	71	0.764	blue	red	stim	incongruent	s638_2	False
98.12	1.5	2.0	incongruent	1.0	71.0	stroop	71	0.614	blue	red	stim	incongruent	s638_2	False
100.123	1.5	2.136	incongruent	1.0	71.0	stroop	71	0.526	blue	red	stim	incongruent	s638_2	False
102.261	1.5	2.952	congruent	1.0	71.0	stroop	71	0.466	blue	blue	stim	congruent	s638_2	False
105.219	1.5	2.0	incongruent	1.0	82.0	stroop	82	0.859	green	red	stim	incongruent	s638_2	False
107.223	1.5	2.272	incongruent	1.0	71.0	stroop	71	0.822	blue	green	stim	incongruent	s638_2	False
109.501	1.5	2.0	incongruent	1.0	89.0	stroop	89	0.76	red	blue	stim	incongruent	s638_2	False
111.507	1.5	2.0	congruent	1.0	89.0	stroop	89	0.637	red	red	stim	congruent	s638_2	False
113.512	1.5	2.0	congruent	1.0	89.0	stroop	89	0.453	red	red	stim	congruent	s638_2	False
115.518	1.5	2.0	incongruent	1.0	71.0	stroop	71	0.769	blue	green	stim	incongruent	s638_2	False
117.52	1.5	2.136	congruent	1.0	89.0	stroop	89	0.631	red	red	stim	congruent	s638_2	False
119.661	1.5	2.0	congruent	1.0	71.0	stroop	71	0.58	blue	blue	stim	congruent	s638_2	False
121.667	1.5	2.0	incongruent	1.0	82.0	stroop	82	0.79	green	blue	stim	incongruent	s638_2	False
123.67	1.5	2.136	congruent	1.0	89.0	stroop	89	0.56	red	red	stim	congruent	s638_2	False
125.811	1.5	2.0	incongruent	1.0	89.0	stroop	89	0.684	red	blue	stim	incongruent	s638_2	False
127.816	1.5	2.0	incongruent	1.0	82.0	stroop	82	0.671	green	red	stim	incongruent	s638_2	False
129.818	1.5	2.136	incongruent	1.0	89.0	stroop	89	0.643	red	blue	stim	incongruent	s638_2	False
131.96	1.5	2.136	congruent	1.0	89.0	stroop	89	0.402	red	red	stim	congruent	s638_2	False
134.101	1.5	2.272	congruent	1.0	82.0	stroop	82	0.521	green	green	stim	congruent	s638_2	False
136.379	1.5	2.68	incongruent	1.0	82.0	stroop	82	0.845	green	blue	stim	incongruent	s638_2	False
139.063	1.5	2.0	congruent	1.0	82.0	stroop	82	0.536	green	green	stim	congruent	s638_2	False
141.069	1.5	2.0	congruent	1.0	71.0	stroop	71	0.608	blue	blue	stim	congruent	s638_2	False
143.075	1.5	2.272	incongruent	1.0	89.0	stroop	89	0.63	red	green	stim	incongruent	s638_2	False
145.352	1.5	2.0	incongruent	1.0	71.0	stroop	71	0.674	blue	green	stim	incongruent	s638_2	False
147.357	1.5	2.0	congruent	1.0	71.0	stroop	71	0.547	blue	blue	stim	congruent	s638_2	False
149.362	1.5	2.0	incongruent	0.0	82.0	stroop	89	0.628	green	red	stim	incongruent	s638_2	False
151.368	1.5	2.0	incongruent	1.0	71.0	stroop	71	1.008	blue	green	stim	incongruent	s638_2	False
153.373	1.5	2.0	incongruent	1.0	89.0	stroop	89	1.085	red	blue	stim	incongruent	s638_2	False
155.379	1.5	2.0	incongruent	1.0	89.0	stroop	89	0.987	red	green	stim	incongruent	s638_2	False
157.384	1.5	2.272	congruent	1.0	89.0	stroop	89	0.473	red	red	stim	congruent	s638_2	False
159.661	1.5	2.0	incongruent	1.0	89.0	stroop	89	0.432	red	green	stim	incongruent	s638_2	False
161.664	1.5	2.408	congruent	1.0	82.0	stroop	82	0.723	green	green	stim	congruent	s638_2	False
164.079	1.5	2.0	congruent	1.0	89.0	stroop	89	0.535	red	red	stim	congruent	s638_2	False
166.084	1.5	2.136	congruent	1.0	71.0	stroop	71	0.697	blue	blue	stim	congruent	s638_2	False
168.226	1.5	2.0	congruent	0.0	71.0	stroop	89	0.575	blue	blue	stim	congruent	s638_2	False
170.231	1.5	2.0	congruent	1.0	71.0	stroop	71	0.521	blue	blue	stim	congruent	s638_2	False
172.236	1.5	2.0	incongruent	1.0	89.0	stroop	89	0.698	red	green	stim	incongruent	s638_2	False
174.242	1.5	2.272	congruent	1.0	89.0	stroop	89	0.707	red	red	stim	congruent	s638_2	False
176.52	1.5	2.0	incongruent	1.0	71.0	stroop	71	0.902	blue	green	stim	incongruent	s638_2	False
178.525	1.5	2.272	incongruent	1.0	71.0	stroop	71	0.523	blue	green	stim	incongruent	s638_2	False
180.802	1.5	2.272	incongruent	1.0	89.0	stroop	89	0.504	red	green	stim	incongruent	s638_2	False
183.079	1.5	2.0	incongruent	1.0	82.0	stroop	82	0.762	green	blue	stim	incongruent	s638_2	False
185.082	1.5	2.68	congruent	1.0	71.0	stroop	71	0.546	blue	blue	stim	congruent	s638_2	False
187.767	1.5	2.0	incongruent	1.0	89.0	stroop	89	0.644	red	green	stim	incongruent	s638_2	False
189.773	1.5	2.272	congruent	1.0	71.0	stroop	71	0.816	blue	blue	stim	congruent	s638_2	False
192.05	1.5	2.0	congruent	1.0	71.0	stroop	71	0.802	blue	blue	stim	congruent	s638_2	False
194.055	1.5	2.0	congruent	1.0	89.0	stroop	89	0.595	red	red	stim	congruent	s638_2	False
196.06	1.5	2.272	incongruent	1.0	82.0	stroop	82	0.862	green	blue	stim	incongruent	s638_2	False
198.335	1.5	2.136	congruent	1.0	71.0	stroop	71	0.692	blue	blue	stim	congruent	s638_2	False
200.476	1.5	2.544	congruent	1.0	89.0	stroop	89	0.578	red	red	stim	congruent	s638_2	False
203.023	1.5	2.408	incongruent	1.0	89.0	stroop	89	0.808	red	blue	stim	incongruent	s638_2	False
205.436	1.5	2.0	incongruent	1.0	82.0	stroop	82	0.828	green	blue	stim	incongruent	s638_2	False
207.441	1.5	2.0	incongruent	1.0	82.0	stroop	82	0.687	green	red	stim	incongruent	s638_2	False
