duration	onset	block_duration	movement_onset	planning	condition	exp_stage	experiment_exp_id	key_press	problem_id	response_time	trial_id	trial_type	worker_id	junk
4.46	3.009	4.46	7.469	1	UA_with_intermediate	practice	ward_and_allport	71	0.0	4.46	to_hand	poldrack-single-stim	s639	False
0.1	7.471	0.724	8.195	0	UA_with_intermediate	practice	ward_and_allport	82	0.0	0.724	to_board	poldrack-single-stim	s639	False
0.1	8.198	0.512	8.71	0	UA_with_intermediate	practice	ward_and_allport	71	0.0	0.512	to_hand	poldrack-single-stim	s639	False
0.1	8.712	0.417	9.129	0	UA_with_intermediate	practice	ward_and_allport	89	0.0	0.417	to_board	poldrack-single-stim	s639	False
0.1	9.131	0.681	9.812	0	UA_with_intermediate	practice	ward_and_allport	82	0.0	0.681	to_hand	poldrack-single-stim	s639	False
0.1	9.813	0.535	10.348	0	UA_with_intermediate	practice	ward_and_allport	89	0.0	0.535	to_board	poldrack-single-stim	s639	False
1.0	10.353	2.5	10.352	0	UA_with_intermediate	practice	ward_and_allport	-1	0.0	n/a	feedback	poldrack-single-stim	s639	False
3.216	12.855	3.216	16.071	1	UA_with_intermediate	practice	ward_and_allport	89	1.0	3.216	to_hand	poldrack-single-stim	s639	False
0.1	16.073	0.926	16.999	0	UA_with_intermediate	practice	ward_and_allport	82	1.0	0.926	to_board	poldrack-single-stim	s639	False
0.1	17.0	0.401	17.401	0	UA_with_intermediate	practice	ward_and_allport	71	1.0	0.401	to_hand	poldrack-single-stim	s639	False
0.1	17.403	0.325	17.728	0	UA_with_intermediate	practice	ward_and_allport	89	1.0	0.325	to_board	poldrack-single-stim	s639	False
0.1	17.731	0.571	18.302	0	UA_with_intermediate	practice	ward_and_allport	82	1.0	0.571	to_hand	poldrack-single-stim	s639	False
0.1	18.304	0.439	18.743	0	UA_with_intermediate	practice	ward_and_allport	89	1.0	0.439	to_board	poldrack-single-stim	s639	False
1.0	18.746	2.1	18.745	0	UA_with_intermediate	practice	ward_and_allport	-1	1.0	n/a	feedback	poldrack-single-stim	s639	False
5.088	20.847	5.088	25.935	1	UA_without_intermediate	practice	ward_and_allport	82	2.0	5.088	to_hand	poldrack-single-stim	s639	False
0.1	25.937	1.017	26.954	0	UA_without_intermediate	practice	ward_and_allport	89	2.0	1.017	to_board	poldrack-single-stim	s639	False
0.1	26.955	0.819	27.774	0	UA_without_intermediate	practice	ward_and_allport	71	2.0	0.819	to_hand	poldrack-single-stim	s639	False
0.1	27.775	0.367	28.142	0	UA_without_intermediate	practice	ward_and_allport	89	2.0	0.367	to_board	poldrack-single-stim	s639	False
0.1	28.144	0.823	28.967	0	UA_without_intermediate	practice	ward_and_allport	71	2.0	0.823	to_hand	poldrack-single-stim	s639	False
0.1	28.969	0.357	29.326	0	UA_without_intermediate	practice	ward_and_allport	89	2.0	0.357	to_board	poldrack-single-stim	s639	False
1.0	29.329	2.2	29.328	0	UA_without_intermediate	practice	ward_and_allport	-1	2.0	n/a	feedback	poldrack-single-stim	s639	False
2.844	31.533	2.844	34.377	1	UA_without_intermediate	practice	ward_and_allport	71	3.0	2.844	to_hand	poldrack-single-stim	s639	False
0.1	34.378	0.256	34.634	0	UA_without_intermediate	practice	ward_and_allport	89	3.0	0.256	to_board	poldrack-single-stim	s639	False
0.1	34.636	1.386	36.022	0	UA_without_intermediate	practice	ward_and_allport	82	3.0	1.386	to_hand	poldrack-single-stim	s639	False
0.1	36.023	0.394	36.417	0	UA_without_intermediate	practice	ward_and_allport	89	3.0	0.394	to_board	poldrack-single-stim	s639	False
0.1	36.419	0.391	36.81	0	UA_without_intermediate	practice	ward_and_allport	71	3.0	0.391	to_hand	poldrack-single-stim	s639	False
0.1	36.811	0.309	37.12	0	UA_without_intermediate	practice	ward_and_allport	89	3.0	0.309	to_board	poldrack-single-stim	s639	False
1.0	37.123	2.0	37.122	0	UA_without_intermediate	practice	ward_and_allport	-1	3.0	n/a	feedback	poldrack-single-stim	s639	False
3.669	41.129	3.669	44.798	1	PA_with_intermediate	test	ward_and_allport	71	0.0	3.669	to_hand	poldrack-single-stim	s639	False
0.1	44.8	0.44	45.24	0	PA_with_intermediate	test	ward_and_allport	89	0.0	0.44	to_board	poldrack-single-stim	s639	False
0.1	45.242	0.422	45.664	0	PA_with_intermediate	test	ward_and_allport	71	0.0	0.422	to_hand	poldrack-single-stim	s639	False
0.1	45.666	0.419	46.085	0	PA_with_intermediate	test	ward_and_allport	82	0.0	0.419	to_board	poldrack-single-stim	s639	False
0.1	46.087	0.381	46.468	0	PA_with_intermediate	test	ward_and_allport	89	0.0	0.381	to_hand	poldrack-single-stim	s639	False
0.1	46.47	0.312	46.782	0	PA_with_intermediate	test	ward_and_allport	71	0.0	0.312	to_board	poldrack-single-stim	s639	False
1.0	46.785	2.408	46.784	0	PA_with_intermediate	test	ward_and_allport	-1	0.0	n/a	feedback	poldrack-single-stim	s639	False
6.929	49.196	6.929	56.125	1	PA_without_intermediate	test	ward_and_allport	71	1.0	6.929	to_hand	poldrack-single-stim	s639	False
0.1	56.126	0.329	56.455	0	PA_without_intermediate	test	ward_and_allport	89	1.0	0.329	to_board	poldrack-single-stim	s639	False
0.1	56.456	0.374	56.83	0	PA_without_intermediate	test	ward_and_allport	71	1.0	0.374	to_hand	poldrack-single-stim	s639	False
0.1	56.832	0.417	57.249	0	PA_without_intermediate	test	ward_and_allport	82	1.0	0.417	to_board	poldrack-single-stim	s639	False
0.1	57.251	0.392	57.643	0	PA_without_intermediate	test	ward_and_allport	71	1.0	0.392	to_hand	poldrack-single-stim	s639	False
0.1	57.644	0.348	57.992	0	PA_without_intermediate	test	ward_and_allport	89	1.0	0.348	to_board	poldrack-single-stim	s639	False
1.0	57.996	2.68	57.995	0	PA_without_intermediate	test	ward_and_allport	-1	1.0	n/a	feedback	poldrack-single-stim	s639	False
2.252	60.68	2.252	62.932	1	PA_with_intermediate	test	ward_and_allport	71	2.0	2.252	to_hand	poldrack-single-stim	s639	False
0.1	62.933	0.31	63.243	0	PA_with_intermediate	test	ward_and_allport	82	2.0	0.31	to_board	poldrack-single-stim	s639	False
0.1	63.245	0.377	63.622	0	PA_with_intermediate	test	ward_and_allport	71	2.0	0.377	to_hand	poldrack-single-stim	s639	False
0.1	63.623	0.304	63.927	0	PA_with_intermediate	test	ward_and_allport	89	2.0	0.304	to_board	poldrack-single-stim	s639	False
0.1	63.929	0.79	64.719	0	PA_with_intermediate	test	ward_and_allport	82	2.0	0.79	to_hand	poldrack-single-stim	s639	False
0.1	64.72	0.72	65.44	0	PA_with_intermediate	test	ward_and_allport	89	2.0	0.72	to_board	poldrack-single-stim	s639	False
1.0	65.444	4.72	65.443	0	PA_with_intermediate	test	ward_and_allport	-1	2.0	n/a	feedback	poldrack-single-stim	s639	False
4.213	70.167	4.213	74.38	1	PA_without_intermediate	test	ward_and_allport	82	3.0	4.213	to_hand	poldrack-single-stim	s639	False
0.1	74.382	0.433	74.815	0	PA_without_intermediate	test	ward_and_allport	71	3.0	0.433	to_board	poldrack-single-stim	s639	False
0.1	74.817	0.524	75.341	0	PA_without_intermediate	test	ward_and_allport	82	3.0	0.524	to_hand	poldrack-single-stim	s639	False
0.1	75.342	0.629	75.971	0	PA_without_intermediate	test	ward_and_allport	89	3.0	0.629	to_board	poldrack-single-stim	s639	False
0.1	75.974	0.824	76.798	0	PA_without_intermediate	test	ward_and_allport	82	3.0	0.824	to_hand	poldrack-single-stim	s639	False
0.1	76.8	0.392	77.192	0	PA_without_intermediate	test	ward_and_allport	71	3.0	0.392	to_board	poldrack-single-stim	s639	False
1.0	77.196	3.224	77.195	0	PA_without_intermediate	test	ward_and_allport	-1	3.0	n/a	feedback	poldrack-single-stim	s639	False
2.972	80.423	2.972	83.395	1	PA_without_intermediate	test	ward_and_allport	71	4.0	2.972	to_hand	poldrack-single-stim	s639	False
0.1	83.397	0.522	83.919	0	PA_without_intermediate	test	ward_and_allport	82	4.0	0.522	to_board	poldrack-single-stim	s639	False
0.1	83.921	0.355	84.276	0	PA_without_intermediate	test	ward_and_allport	71	4.0	0.355	to_hand	poldrack-single-stim	s639	False
0.1	84.277	0.307	84.584	0	PA_without_intermediate	test	ward_and_allport	82	4.0	0.307	to_board	poldrack-single-stim	s639	False
0.1	84.587	0.327	84.914	0	PA_without_intermediate	test	ward_and_allport	71	4.0	0.327	to_hand	poldrack-single-stim	s639	False
0.1	84.916	0.466	85.382	0	PA_without_intermediate	test	ward_and_allport	89	4.0	0.466	to_board	poldrack-single-stim	s639	False
1.0	85.386	2.272	85.385	0	PA_without_intermediate	test	ward_and_allport	-1	4.0	n/a	feedback	poldrack-single-stim	s639	False
3.575	87.662	3.575	91.237	1	PA_with_intermediate	test	ward_and_allport	71	5.0	3.575	to_hand	poldrack-single-stim	s639	False
0.1	91.238	0.448	91.686	0	PA_with_intermediate	test	ward_and_allport	82	5.0	0.448	to_board	poldrack-single-stim	s639	False
0.1	91.689	0.36	92.049	0	PA_with_intermediate	test	ward_and_allport	71	5.0	0.36	to_hand	poldrack-single-stim	s639	False
0.1	92.051	0.307	92.358	0	PA_with_intermediate	test	ward_and_allport	89	5.0	0.307	to_board	poldrack-single-stim	s639	False
0.1	92.361	0.491	92.852	0	PA_with_intermediate	test	ward_and_allport	82	5.0	0.491	to_hand	poldrack-single-stim	s639	False
0.1	92.854	0.333	93.187	0	PA_with_intermediate	test	ward_and_allport	71	5.0	0.333	to_board	poldrack-single-stim	s639	False
1.0	93.191	3.632	93.19	0	PA_with_intermediate	test	ward_and_allport	-1	5.0	n/a	feedback	poldrack-single-stim	s639	False
3.687	96.827	3.687	100.514	1	PA_without_intermediate	test	ward_and_allport	89	6.0	3.687	to_hand	poldrack-single-stim	s639	False
0.1	100.515	0.425	100.94	0	PA_without_intermediate	test	ward_and_allport	82	6.0	0.425	to_board	poldrack-single-stim	s639	False
0.1	100.944	1.456	102.4	0	PA_without_intermediate	test	ward_and_allport	89	6.0	1.456	to_hand	poldrack-single-stim	s639	False
0.1	102.401	0.541	102.942	0	PA_without_intermediate	test	ward_and_allport	71	6.0	0.541	to_board	poldrack-single-stim	s639	False
0.1	102.945	0.494	103.439	0	PA_without_intermediate	test	ward_and_allport	89	6.0	0.494	to_hand	poldrack-single-stim	s639	False
0.1	103.441	0.547	103.988	0	PA_without_intermediate	test	ward_and_allport	82	6.0	0.547	to_board	poldrack-single-stim	s639	False
1.0	103.994	2.408	103.993	0	PA_without_intermediate	test	ward_and_allport	-1	6.0	n/a	feedback	poldrack-single-stim	s639	False
4.383	106.405	4.383	110.788	1	PA_without_intermediate	test	ward_and_allport	82	7.0	4.383	to_hand	poldrack-single-stim	s639	False
0.1	110.789	0.405	111.194	0	PA_without_intermediate	test	ward_and_allport	71	7.0	0.405	to_board	poldrack-single-stim	s639	False
0.1	111.198	0.352	111.55	0	PA_without_intermediate	test	ward_and_allport	82	7.0	0.352	to_hand	poldrack-single-stim	s639	False
0.1	111.551	0.569	112.12	0	PA_without_intermediate	test	ward_and_allport	71	7.0	0.569	to_board	poldrack-single-stim	s639	False
0.1	112.123	0.537	112.66	0	PA_without_intermediate	test	ward_and_allport	82	7.0	0.537	to_hand	poldrack-single-stim	s639	False
0.1	112.662	0.51	113.172	0	PA_without_intermediate	test	ward_and_allport	89	7.0	0.51	to_board	poldrack-single-stim	s639	False
1.0	113.175	2.0	113.174	0	PA_without_intermediate	test	ward_and_allport	-1	7.0	n/a	feedback	poldrack-single-stim	s639	False
2.377	115.178	2.377	117.555	1	PA_with_intermediate	test	ward_and_allport	82	8.0	2.377	to_hand	poldrack-single-stim	s639	False
0.1	117.557	0.493	118.05	0	PA_with_intermediate	test	ward_and_allport	71	8.0	0.493	to_board	poldrack-single-stim	s639	False
0.1	118.054	0.45	118.504	0	PA_with_intermediate	test	ward_and_allport	82	8.0	0.45	to_hand	poldrack-single-stim	s639	False
0.1	118.505	0.439	118.944	0	PA_with_intermediate	test	ward_and_allport	89	8.0	0.439	to_board	poldrack-single-stim	s639	False
0.1	118.947	1.038	119.985	0	PA_with_intermediate	test	ward_and_allport	71	8.0	1.038	to_hand	poldrack-single-stim	s639	False
0.1	119.986	0.391	120.377	0	PA_with_intermediate	test	ward_and_allport	82	8.0	0.391	to_board	poldrack-single-stim	s639	False
1.0	120.383	2.0	120.382	0	PA_with_intermediate	test	ward_and_allport	-1	8.0	n/a	feedback	poldrack-single-stim	s639	False
5.478	122.388	5.478	127.866	1	PA_with_intermediate	test	ward_and_allport	89	9.0	5.478	to_hand	poldrack-single-stim	s639	False
0.1	127.866	0.406	128.272	0	PA_with_intermediate	test	ward_and_allport	71	9.0	0.406	to_board	poldrack-single-stim	s639	False
0.1	128.276	0.629	128.905	0	PA_with_intermediate	test	ward_and_allport	89	9.0	0.629	to_hand	poldrack-single-stim	s639	False
0.1	128.907	0.657	129.564	0	PA_with_intermediate	test	ward_and_allport	82	9.0	0.657	to_board	poldrack-single-stim	s639	False
0.1	129.569	0.384	129.953	0	PA_with_intermediate	test	ward_and_allport	71	9.0	0.384	to_hand	poldrack-single-stim	s639	False
0.1	129.954	0.425	130.379	0	PA_with_intermediate	test	ward_and_allport	82	9.0	0.425	to_board	poldrack-single-stim	s639	False
1.0	130.384	2.0	130.383	0	PA_with_intermediate	test	ward_and_allport	-1	9.0	n/a	feedback	poldrack-single-stim	s639	False
5.034	132.389	5.034	137.423	1	PA_with_intermediate	test	ward_and_allport	82	10.0	5.034	to_hand	poldrack-single-stim	s639	False
0.1	137.424	0.395	137.819	0	PA_with_intermediate	test	ward_and_allport	89	10.0	0.395	to_board	poldrack-single-stim	s639	False
0.1	137.824	0.711	138.535	0	PA_with_intermediate	test	ward_and_allport	82	10.0	0.711	to_hand	poldrack-single-stim	s639	False
0.1	138.537	0.552	139.089	0	PA_with_intermediate	test	ward_and_allport	71	10.0	0.552	to_board	poldrack-single-stim	s639	False
0.1	139.094	0.497	139.591	0	PA_with_intermediate	test	ward_and_allport	89	10.0	0.497	to_hand	poldrack-single-stim	s639	False
0.1	139.592	0.494	140.086	0	PA_with_intermediate	test	ward_and_allport	82	10.0	0.494	to_board	poldrack-single-stim	s639	False
1.0	140.092	2.408	140.091	0	PA_with_intermediate	test	ward_and_allport	-1	10.0	n/a	feedback	poldrack-single-stim	s639	False
5.397	142.505	5.397	147.902	1	PA_without_intermediate	test	ward_and_allport	89	11.0	5.397	to_hand	poldrack-single-stim	s639	False
0.1	147.903	0.636	148.539	0	PA_without_intermediate	test	ward_and_allport	71	11.0	0.636	to_board	poldrack-single-stim	s639	False
0.1	148.543	0.423	148.966	0	PA_without_intermediate	test	ward_and_allport	89	11.0	0.423	to_hand	poldrack-single-stim	s639	False
0.1	148.967	0.523	149.49	0	PA_without_intermediate	test	ward_and_allport	82	11.0	0.523	to_board	poldrack-single-stim	s639	False
0.1	149.493	0.575	150.068	0	PA_without_intermediate	test	ward_and_allport	89	11.0	0.575	to_hand	poldrack-single-stim	s639	False
0.1	150.07	0.479	150.549	0	PA_without_intermediate	test	ward_and_allport	71	11.0	0.479	to_board	poldrack-single-stim	s639	False
1.0	150.555	2.816	150.554	0	PA_without_intermediate	test	ward_and_allport	-1	11.0	n/a	feedback	poldrack-single-stim	s639	False
3.727	153.377	3.727	157.104	1	PA_with_intermediate	test	ward_and_allport	71	12.0	3.727	to_hand	poldrack-single-stim	s639	False
0.1	157.105	0.277	157.382	0	PA_with_intermediate	test	ward_and_allport	89	12.0	0.277	to_board	poldrack-single-stim	s639	False
0.1	157.387	0.417	157.804	0	PA_with_intermediate	test	ward_and_allport	71	12.0	0.417	to_hand	poldrack-single-stim	s639	False
0.1	157.806	0.391	158.197	0	PA_with_intermediate	test	ward_and_allport	82	12.0	0.391	to_board	poldrack-single-stim	s639	False
0.1	158.202	0.467	158.669	0	PA_with_intermediate	test	ward_and_allport	89	12.0	0.467	to_hand	poldrack-single-stim	s639	False
0.1	158.671	0.452	159.123	0	PA_with_intermediate	test	ward_and_allport	82	12.0	0.452	to_board	poldrack-single-stim	s639	False
1.0	159.128	4.176	159.127	0	PA_with_intermediate	test	ward_and_allport	-1	12.0	n/a	feedback	poldrack-single-stim	s639	False
4.212	163.309	4.212	167.521	1	PA_with_intermediate	test	ward_and_allport	71	13.0	4.212	to_hand	poldrack-single-stim	s639	False
0.1	167.523	0.313	167.836	0	PA_with_intermediate	test	ward_and_allport	89	13.0	0.313	to_board	poldrack-single-stim	s639	False
0.1	167.84	0.364	168.204	0	PA_with_intermediate	test	ward_and_allport	71	13.0	0.364	to_hand	poldrack-single-stim	s639	False
0.1	168.205	0.343	168.548	0	PA_with_intermediate	test	ward_and_allport	82	13.0	0.343	to_board	poldrack-single-stim	s639	False
0.1	168.552	0.497	169.049	0	PA_with_intermediate	test	ward_and_allport	89	13.0	0.497	to_hand	poldrack-single-stim	s639	False
0.1	169.05	0.321	169.371	0	PA_with_intermediate	test	ward_and_allport	71	13.0	0.321	to_board	poldrack-single-stim	s639	False
1.0	169.378	3.36	169.377	0	PA_with_intermediate	test	ward_and_allport	-1	13.0	n/a	feedback	poldrack-single-stim	s639	False
3.792	172.744	3.792	176.536	1	PA_with_intermediate	test	ward_and_allport	89	14.0	3.792	to_hand	poldrack-single-stim	s639	False
0.1	176.537	0.367	176.904	0	PA_with_intermediate	test	ward_and_allport	71	14.0	0.367	to_board	poldrack-single-stim	s639	False
0.1	176.909	0.351	177.26	0	PA_with_intermediate	test	ward_and_allport	89	14.0	0.351	to_hand	poldrack-single-stim	s639	False
0.1	177.261	0.584	177.845	0	PA_with_intermediate	test	ward_and_allport	82	14.0	0.584	to_board	poldrack-single-stim	s639	False
0.1	177.85	0.492	178.342	0	PA_with_intermediate	test	ward_and_allport	71	14.0	0.492	to_hand	poldrack-single-stim	s639	False
0.1	178.344	0.438	178.782	0	PA_with_intermediate	test	ward_and_allport	82	14.0	0.438	to_board	poldrack-single-stim	s639	False
1.0	178.788	2.0	178.787	0	PA_with_intermediate	test	ward_and_allport	-1	14.0	n/a	feedback	poldrack-single-stim	s639	False
3.95	185.796	3.95	189.746	1	PA_without_intermediate	test	ward_and_allport	71	15.0	3.95	to_hand	poldrack-single-stim	s639	False
0.1	189.746	0.557	190.303	0	PA_without_intermediate	test	ward_and_allport	82	15.0	0.557	to_board	poldrack-single-stim	s639	False
0.1	190.308	0.446	190.754	0	PA_without_intermediate	test	ward_and_allport	71	15.0	0.446	to_hand	poldrack-single-stim	s639	False
0.1	190.756	0.406	191.162	0	PA_without_intermediate	test	ward_and_allport	82	15.0	0.406	to_board	poldrack-single-stim	s639	False
0.1	191.167	0.442	191.609	0	PA_without_intermediate	test	ward_and_allport	71	15.0	0.442	to_hand	poldrack-single-stim	s639	False
0.1	191.61	0.352	191.962	0	PA_without_intermediate	test	ward_and_allport	89	15.0	0.352	to_board	poldrack-single-stim	s639	False
1.0	191.968	2.408	191.967	0	PA_without_intermediate	test	ward_and_allport	-1	15.0	n/a	feedback	poldrack-single-stim	s639	False
3.484	194.382	3.484	197.866	1	PA_with_intermediate	test	ward_and_allport	82	16.0	3.484	to_hand	poldrack-single-stim	s639	False
0.1	197.867	0.364	198.231	0	PA_with_intermediate	test	ward_and_allport	71	16.0	0.364	to_board	poldrack-single-stim	s639	False
0.1	198.236	0.464	198.7	0	PA_with_intermediate	test	ward_and_allport	82	16.0	0.464	to_hand	poldrack-single-stim	s639	False
0.1	198.701	0.407	199.108	0	PA_with_intermediate	test	ward_and_allport	89	16.0	0.407	to_board	poldrack-single-stim	s639	False
0.1	199.112	0.477	199.589	0	PA_with_intermediate	test	ward_and_allport	71	16.0	0.477	to_hand	poldrack-single-stim	s639	False
0.1	199.591	0.579	200.17	0	PA_with_intermediate	test	ward_and_allport	89	16.0	0.579	to_board	poldrack-single-stim	s639	False
1.0	200.176	2.816	200.175	0	PA_with_intermediate	test	ward_and_allport	-1	16.0	n/a	feedback	poldrack-single-stim	s639	False
3.407	202.997	3.407	206.404	1	PA_without_intermediate	test	ward_and_allport	82	17.0	3.407	to_hand	poldrack-single-stim	s639	False
0.1	206.406	0.36	206.766	0	PA_without_intermediate	test	ward_and_allport	89	17.0	0.36	to_board	poldrack-single-stim	s639	False
0.1	206.771	0.713	207.484	0	PA_without_intermediate	test	ward_and_allport	82	17.0	0.713	to_hand	poldrack-single-stim	s639	False
0.1	207.485	0.431	207.916	0	PA_without_intermediate	test	ward_and_allport	71	17.0	0.431	to_board	poldrack-single-stim	s639	False
0.1	207.92	0.386	208.306	0	PA_without_intermediate	test	ward_and_allport	82	17.0	0.386	to_hand	poldrack-single-stim	s639	False
0.1	208.307	0.376	208.683	0	PA_without_intermediate	test	ward_and_allport	89	17.0	0.376	to_board	poldrack-single-stim	s639	False
1.0	208.69	3.088	208.689	0	PA_without_intermediate	test	ward_and_allport	-1	17.0	n/a	feedback	poldrack-single-stim	s639	False
1.728	211.784	1.728	213.512	1	PA_without_intermediate	test	ward_and_allport	71	18.0	1.728	to_hand	poldrack-single-stim	s639	False
0.1	213.514	0.34	213.854	0	PA_without_intermediate	test	ward_and_allport	82	18.0	0.34	to_board	poldrack-single-stim	s639	False
0.1	213.859	0.44	214.299	0	PA_without_intermediate	test	ward_and_allport	71	18.0	0.44	to_hand	poldrack-single-stim	s639	False
0.1	214.299	0.317	214.616	0	PA_without_intermediate	test	ward_and_allport	89	18.0	0.317	to_board	poldrack-single-stim	s639	False
0.1	214.621	0.406	215.027	0	PA_without_intermediate	test	ward_and_allport	71	18.0	0.406	to_hand	poldrack-single-stim	s639	False
0.1	215.029	0.416	215.445	0	PA_without_intermediate	test	ward_and_allport	82	18.0	0.416	to_board	poldrack-single-stim	s639	False
1.0	215.452	2.136	215.451	0	PA_without_intermediate	test	ward_and_allport	-1	18.0	n/a	feedback	poldrack-single-stim	s639	False
3.142	217.594	3.142	220.736	1	PA_without_intermediate	test	ward_and_allport	89	19.0	3.142	to_hand	poldrack-single-stim	s639	False
0.1	220.738	0.472	221.21	0	PA_without_intermediate	test	ward_and_allport	82	19.0	0.472	to_board	poldrack-single-stim	s639	False
0.1	221.216	0.649	221.865	0	PA_without_intermediate	test	ward_and_allport	89	19.0	0.649	to_hand	poldrack-single-stim	s639	False
0.1	221.867	0.566	222.433	0	PA_without_intermediate	test	ward_and_allport	71	19.0	0.566	to_board	poldrack-single-stim	s639	False
0.1	222.439	0.398	222.837	0	PA_without_intermediate	test	ward_and_allport	89	19.0	0.398	to_hand	poldrack-single-stim	s639	False
0.1	222.838	0.37	223.208	0	PA_without_intermediate	test	ward_and_allport	82	19.0	0.37	to_board	poldrack-single-stim	s639	False
1.0	223.215	7.168	223.214	0	PA_without_intermediate	test	ward_and_allport	-1	19.0	n/a	feedback	poldrack-single-stim	s639	False
3.836	230.389	3.836	234.225	1	PA_without_intermediate	test	ward_and_allport	82	20.0	3.836	to_hand	poldrack-single-stim	s639	False
0.1	234.225	0.567	234.792	0	PA_without_intermediate	test	ward_and_allport	71	20.0	0.567	to_board	poldrack-single-stim	s639	False
0.1	234.796	0.893	235.689	0	PA_without_intermediate	test	ward_and_allport	82	20.0	0.893	to_hand	poldrack-single-stim	s639	False
0.1	235.691	0.52	236.211	0	PA_without_intermediate	test	ward_and_allport	71	20.0	0.52	to_board	poldrack-single-stim	s639	False
0.1	236.215	0.543	236.758	0	PA_without_intermediate	test	ward_and_allport	82	20.0	0.543	to_hand	poldrack-single-stim	s639	False
0.1	236.759	0.441	237.2	0	PA_without_intermediate	test	ward_and_allport	89	20.0	0.441	to_board	poldrack-single-stim	s639	False
1.0	237.207	2.816	237.206	0	PA_without_intermediate	test	ward_and_allport	-1	20.0	n/a	feedback	poldrack-single-stim	s639	False
4.095	240.029	4.095	244.124	1	PA_with_intermediate	test	ward_and_allport	89	21.0	4.095	to_hand	poldrack-single-stim	s639	False
0.1	244.125	0.5	244.625	0	PA_with_intermediate	test	ward_and_allport	82	21.0	0.5	to_board	poldrack-single-stim	s639	False
0.1	244.631	1.462	246.093	0	PA_with_intermediate	test	ward_and_allport	89	21.0	1.462	to_hand	poldrack-single-stim	s639	False
0.1	246.094	0.444	246.538	0	PA_with_intermediate	test	ward_and_allport	71	21.0	0.444	to_board	poldrack-single-stim	s639	False
0.1	246.545	0.947	247.492	0	PA_with_intermediate	test	ward_and_allport	82	21.0	0.947	to_hand	poldrack-single-stim	s639	False
0.1	247.493	0.426	247.919	0	PA_with_intermediate	test	ward_and_allport	71	21.0	0.426	to_board	poldrack-single-stim	s639	False
1.0	247.926	2.952	247.925	0	PA_with_intermediate	test	ward_and_allport	-1	21.0	n/a	feedback	poldrack-single-stim	s639	False
4.515	250.885	4.515	255.4	1	PA_with_intermediate	test	ward_and_allport	89	22.0	4.515	to_hand	poldrack-single-stim	s639	False
0.1	255.402	0.379	255.781	0	PA_with_intermediate	test	ward_and_allport	71	22.0	0.379	to_board	poldrack-single-stim	s639	False
0.1	255.787	0.428	256.215	0	PA_with_intermediate	test	ward_and_allport	89	22.0	0.428	to_hand	poldrack-single-stim	s639	False
0.1	256.216	0.433	256.649	0	PA_with_intermediate	test	ward_and_allport	82	22.0	0.433	to_board	poldrack-single-stim	s639	False
0.1	256.655	0.452	257.107	0	PA_with_intermediate	test	ward_and_allport	71	22.0	0.452	to_hand	poldrack-single-stim	s639	False
0.1	257.109	0.351	257.46	0	PA_with_intermediate	test	ward_and_allport	89	22.0	0.351	to_board	poldrack-single-stim	s639	False
1.0	257.468	2.136	257.467	0	PA_with_intermediate	test	ward_and_allport	-1	22.0	n/a	feedback	poldrack-single-stim	s639	False
3.178	259.611	3.178	262.789	1	PA_without_intermediate	test	ward_and_allport	82	23.0	3.178	to_hand	poldrack-single-stim	s639	False
0.1	262.79	1.038	263.828	0	PA_without_intermediate	test	ward_and_allport	89	23.0	1.038	to_board	poldrack-single-stim	s639	False
0.1	263.835	0.65	264.485	0	PA_without_intermediate	test	ward_and_allport	82	23.0	0.65	to_hand	poldrack-single-stim	s639	False
0.1	264.486	0.383	264.869	0	PA_without_intermediate	test	ward_and_allport	71	23.0	0.383	to_board	poldrack-single-stim	s639	False
0.1	264.876	0.518	265.394	0	PA_without_intermediate	test	ward_and_allport	89	23.0	0.518	to_hand	poldrack-single-stim	s639	False
0.1	265.395	2.289	267.684	0	PA_without_intermediate	test	ward_and_allport	71	23.0	2.289	to_board	poldrack-single-stim	s639	False
0.1	267.69	0.436	268.126	0	PA_without_intermediate	test	ward_and_allport	82	23.0	0.436	to_hand	poldrack-single-stim	s639	False
0.1	268.127	0.588	268.715	0	PA_without_intermediate	test	ward_and_allport	89	23.0	0.588	to_board	poldrack-single-stim	s639	False
0.1	268.721	0.572	269.293	0	PA_without_intermediate	test	ward_and_allport	71	23.0	0.572	to_hand	poldrack-single-stim	s639	False
0.1	269.293	0.274	269.567	0	PA_without_intermediate	test	ward_and_allport	89	23.0	0.274	to_board	poldrack-single-stim	s639	False
0.1	269.573	3.325	272.898	0	PA_without_intermediate	test	ward_and_allport	89	23.0	3.325	to_hand	poldrack-single-stim	s639	False
0.1	272.9	0.81	273.71	0	PA_without_intermediate	test	ward_and_allport	71	23.0	0.81	to_board	poldrack-single-stim	s639	False
0.1	273.716	0.711	274.427	0	PA_without_intermediate	test	ward_and_allport	89	23.0	0.711	to_hand	poldrack-single-stim	s639	False
0.1	274.429	0.467	274.896	0	PA_without_intermediate	test	ward_and_allport	82	23.0	0.467	to_board	poldrack-single-stim	s639	False
0.1	274.902	0.814	275.716	0	PA_without_intermediate	test	ward_and_allport	71	23.0	0.814	to_hand	poldrack-single-stim	s639	False
0.1	275.717	0.403	276.12	0	PA_without_intermediate	test	ward_and_allport	89	23.0	0.403	to_board	poldrack-single-stim	s639	False
0.1	276.126	0.559	276.685	0	PA_without_intermediate	test	ward_and_allport	82	23.0	0.559	to_hand	poldrack-single-stim	s639	False
0.1	276.686	0.414	277.1	0	PA_without_intermediate	test	ward_and_allport	89	23.0	0.414	to_board	poldrack-single-stim	s639	False
1.0	277.108	2.68	277.107	0	PA_without_intermediate	test	ward_and_allport	-1	23.0	n/a	feedback	poldrack-single-stim	s639	False
5.108	279.796	5.108	284.904	1	PA_without_intermediate	test	ward_and_allport	82	24.0	5.108	to_hand	poldrack-single-stim	s639	False
0.1	284.905	0.492	285.397	0	PA_without_intermediate	test	ward_and_allport	89	24.0	0.492	to_board	poldrack-single-stim	s639	False
0.1	285.404	0.579	285.983	0	PA_without_intermediate	test	ward_and_allport	82	24.0	0.579	to_hand	poldrack-single-stim	s639	False
0.1	285.985	0.46	286.445	0	PA_without_intermediate	test	ward_and_allport	89	24.0	0.46	to_board	poldrack-single-stim	s639	False
0.1	286.452	1.791	288.243	0	PA_without_intermediate	test	ward_and_allport	82	24.0	1.791	to_hand	poldrack-single-stim	s639	False
0.1	288.243	0.41	288.653	0	PA_without_intermediate	test	ward_and_allport	71	24.0	0.41	to_board	poldrack-single-stim	s639	False
1.0	288.662	3.088	288.661	0	PA_without_intermediate	test	ward_and_allport	-1	24.0	n/a	feedback	poldrack-single-stim	s639	False
9.476	291.758	9.476	301.234	1	PA_with_intermediate	test	ward_and_allport	82	25.0	9.476	to_hand	poldrack-single-stim	s639	False
0.1	301.235	0.499	301.734	0	PA_with_intermediate	test	ward_and_allport	71	25.0	0.499	to_board	poldrack-single-stim	s639	False
0.1	301.741	0.496	302.237	0	PA_with_intermediate	test	ward_and_allport	82	25.0	0.496	to_hand	poldrack-single-stim	s639	False
0.1	302.238	0.865	303.103	0	PA_with_intermediate	test	ward_and_allport	71	25.0	0.865	to_board	poldrack-single-stim	s639	False
0.1	303.11	0.494	303.604	0	PA_with_intermediate	test	ward_and_allport	82	25.0	0.494	to_hand	poldrack-single-stim	s639	False
0.1	303.606	0.998	304.604	0	PA_with_intermediate	test	ward_and_allport	89	25.0	0.998	to_board	poldrack-single-stim	s639	False
0.1	304.611	0.787	305.398	0	PA_with_intermediate	test	ward_and_allport	71	25.0	0.787	to_hand	poldrack-single-stim	s639	False
0.1	305.4	0.354	305.754	0	PA_with_intermediate	test	ward_and_allport	82	25.0	0.354	to_board	poldrack-single-stim	s639	False
0.1	305.76	0.72	306.48	0	PA_with_intermediate	test	ward_and_allport	71	25.0	0.72	to_hand	poldrack-single-stim	s639	False
0.1	306.482	0.387	306.869	0	PA_with_intermediate	test	ward_and_allport	89	25.0	0.387	to_board	poldrack-single-stim	s639	False
0.1	306.877	0.537	307.414	0	PA_with_intermediate	test	ward_and_allport	82	25.0	0.537	to_hand	poldrack-single-stim	s639	False
0.1	307.415	0.327	307.742	0	PA_with_intermediate	test	ward_and_allport	71	25.0	0.327	to_board	poldrack-single-stim	s639	False
0.1	307.749	2.479	310.228	0	PA_with_intermediate	test	ward_and_allport	89	25.0	2.479	to_hand	poldrack-single-stim	s639	False
0.1	310.229	1.091	311.32	0	PA_with_intermediate	test	ward_and_allport	71	25.0	1.091	to_board	poldrack-single-stim	s639	False
0.1	311.327	0.44	311.767	0	PA_with_intermediate	test	ward_and_allport	89	25.0	0.44	to_hand	poldrack-single-stim	s639	False
0.1	311.768	0.728	312.496	0	PA_with_intermediate	test	ward_and_allport	82	25.0	0.728	to_board	poldrack-single-stim	s639	False
0.1	312.503	0.645	313.148	0	PA_with_intermediate	test	ward_and_allport	71	25.0	0.645	to_hand	poldrack-single-stim	s639	False
0.1	313.149	0.286	313.435	0	PA_with_intermediate	test	ward_and_allport	82	25.0	0.286	to_board	poldrack-single-stim	s639	False
1.0	313.444	2.0	313.443	0	PA_with_intermediate	test	ward_and_allport	-1	25.0	n/a	feedback	poldrack-single-stim	s639	False
2.538	315.451	2.538	317.989	1	PA_without_intermediate	test	ward_and_allport	71	26.0	2.538	to_hand	poldrack-single-stim	s639	False
0.1	317.991	0.564	318.555	0	PA_without_intermediate	test	ward_and_allport	82	26.0	0.564	to_board	poldrack-single-stim	s639	False
0.1	318.562	0.554	319.116	0	PA_without_intermediate	test	ward_and_allport	71	26.0	0.554	to_hand	poldrack-single-stim	s639	False
0.1	319.117	0.356	319.473	0	PA_without_intermediate	test	ward_and_allport	89	26.0	0.356	to_board	poldrack-single-stim	s639	False
0.1	319.481	0.393	319.874	0	PA_without_intermediate	test	ward_and_allport	71	26.0	0.393	to_hand	poldrack-single-stim	s639	False
0.1	319.874	0.476	320.35	0	PA_without_intermediate	test	ward_and_allport	82	26.0	0.476	to_board	poldrack-single-stim	s639	False
1.0	320.36	2.0	320.359	0	PA_without_intermediate	test	ward_and_allport	-1	26.0	n/a	feedback	poldrack-single-stim	s639	False
5.405	322.368	5.405	327.773	1	PA_without_intermediate	test	ward_and_allport	82	27.0	5.405	to_hand	poldrack-single-stim	s639	False
0.1	327.774	0.37	328.144	0	PA_without_intermediate	test	ward_and_allport	71	27.0	0.37	to_board	poldrack-single-stim	s639	False
0.1	328.151	0.959	329.11	0	PA_without_intermediate	test	ward_and_allport	82	27.0	0.959	to_hand	poldrack-single-stim	s639	False
0.1	329.111	0.581	329.692	0	PA_without_intermediate	test	ward_and_allport	89	27.0	0.581	to_board	poldrack-single-stim	s639	False
0.1	329.7	0.432	330.132	0	PA_without_intermediate	test	ward_and_allport	82	27.0	0.432	to_hand	poldrack-single-stim	s639	False
0.1	330.133	0.285	330.418	0	PA_without_intermediate	test	ward_and_allport	71	27.0	0.285	to_board	poldrack-single-stim	s639	False
1.0	330.427	2.0	330.426	0	PA_without_intermediate	test	ward_and_allport	-1	27.0	n/a	feedback	poldrack-single-stim	s639	False
4.681	332.436	4.681	337.117	1	PA_with_intermediate	test	ward_and_allport	89	28.0	4.681	to_hand	poldrack-single-stim	s639	False
0.1	337.119	0.32	337.439	0	PA_with_intermediate	test	ward_and_allport	71	28.0	0.32	to_board	poldrack-single-stim	s639	False
0.1	337.447	0.348	337.795	0	PA_with_intermediate	test	ward_and_allport	89	28.0	0.348	to_hand	poldrack-single-stim	s639	False
0.1	337.797	0.495	338.292	0	PA_with_intermediate	test	ward_and_allport	82	28.0	0.495	to_board	poldrack-single-stim	s639	False
0.1	338.3	0.446	338.746	0	PA_with_intermediate	test	ward_and_allport	71	28.0	0.446	to_hand	poldrack-single-stim	s639	False
0.1	338.746	0.327	339.073	0	PA_with_intermediate	test	ward_and_allport	89	28.0	0.327	to_board	poldrack-single-stim	s639	False
1.0	339.082	2.544	339.081	0	PA_with_intermediate	test	ward_and_allport	-1	28.0	n/a	feedback	poldrack-single-stim	s639	False
3.588	341.635	3.588	345.223	1	PA_without_intermediate	test	ward_and_allport	82	29.0	3.588	to_hand	poldrack-single-stim	s639	False
0.1	345.223	0.296	345.519	0	PA_without_intermediate	test	ward_and_allport	89	29.0	0.296	to_board	poldrack-single-stim	s639	False
0.1	345.528	0.551	346.079	0	PA_without_intermediate	test	ward_and_allport	82	29.0	0.551	to_hand	poldrack-single-stim	s639	False
0.1	346.08	0.695	346.775	0	PA_without_intermediate	test	ward_and_allport	89	29.0	0.695	to_board	poldrack-single-stim	s639	False
0.1	346.785	0.81	347.595	0	PA_without_intermediate	test	ward_and_allport	82	29.0	0.81	to_hand	poldrack-single-stim	s639	False
0.1	347.595	0.283	347.878	0	PA_without_intermediate	test	ward_and_allport	71	29.0	0.283	to_board	poldrack-single-stim	s639	False
1.0	347.889	2.272	347.888	0	PA_without_intermediate	test	ward_and_allport	-1	29.0	n/a	feedback	poldrack-single-stim	s639	False
3.576	355.174	3.576	358.75	1	PA_with_intermediate	test	ward_and_allport	82	30.0	3.576	to_hand	poldrack-single-stim	s639	False
0.1	358.752	0.412	359.164	0	PA_with_intermediate	test	ward_and_allport	71	30.0	0.412	to_board	poldrack-single-stim	s639	False
0.1	359.173	0.708	359.881	0	PA_with_intermediate	test	ward_and_allport	82	30.0	0.708	to_hand	poldrack-single-stim	s639	False
0.1	359.883	0.459	360.342	0	PA_with_intermediate	test	ward_and_allport	89	30.0	0.459	to_board	poldrack-single-stim	s639	False
0.1	360.352	0.687	361.039	0	PA_with_intermediate	test	ward_and_allport	71	30.0	0.687	to_hand	poldrack-single-stim	s639	False
0.1	361.041	0.383	361.424	0	PA_with_intermediate	test	ward_and_allport	89	30.0	0.383	to_board	poldrack-single-stim	s639	False
1.0	361.435	4.04	361.434	0	PA_with_intermediate	test	ward_and_allport	-1	30.0	n/a	feedback	poldrack-single-stim	s639	False
4.248	365.484	4.248	369.732	1	PA_with_intermediate	test	ward_and_allport	89	31.0	4.248	to_hand	poldrack-single-stim	s639	False
0.1	369.733	0.446	370.179	0	PA_with_intermediate	test	ward_and_allport	71	31.0	0.446	to_board	poldrack-single-stim	s639	False
0.1	370.189	0.356	370.545	0	PA_with_intermediate	test	ward_and_allport	89	31.0	0.356	to_hand	poldrack-single-stim	s639	False
0.1	370.547	1.635	372.182	0	PA_with_intermediate	test	ward_and_allport	89	31.0	1.635	to_board	poldrack-single-stim	s639	False
0.1	372.191	0.442	372.633	0	PA_with_intermediate	test	ward_and_allport	71	31.0	0.442	to_hand	poldrack-single-stim	s639	False
0.1	372.635	0.75	373.385	0	PA_with_intermediate	test	ward_and_allport	82	31.0	0.75	to_board	poldrack-single-stim	s639	False
0.1	373.393	0.517	373.91	0	PA_with_intermediate	test	ward_and_allport	89	31.0	0.517	to_hand	poldrack-single-stim	s639	False
0.1	373.911	0.377	374.288	0	PA_with_intermediate	test	ward_and_allport	71	31.0	0.377	to_board	poldrack-single-stim	s639	False
0.1	374.299	0.584	374.883	0	PA_with_intermediate	test	ward_and_allport	82	31.0	0.584	to_hand	poldrack-single-stim	s639	False
0.1	374.883	0.624	375.507	0	PA_with_intermediate	test	ward_and_allport	71	31.0	0.624	to_board	poldrack-single-stim	s639	False
0.1	375.515	1.528	377.043	0	PA_with_intermediate	test	ward_and_allport	71	31.0	1.528	to_hand	poldrack-single-stim	s639	False
0.1	377.044	0.427	377.471	0	PA_with_intermediate	test	ward_and_allport	89	31.0	0.427	to_board	poldrack-single-stim	s639	False
1.0	377.479	2.272	377.478	0	PA_with_intermediate	test	ward_and_allport	-1	31.0	n/a	feedback	poldrack-single-stim	s639	False
5.163	379.758	5.163	384.921	1	PA_with_intermediate	test	ward_and_allport	82	32.0	5.163	to_hand	poldrack-single-stim	s639	False
0.1	384.922	0.402	385.324	0	PA_with_intermediate	test	ward_and_allport	89	32.0	0.402	to_board	poldrack-single-stim	s639	False
0.1	385.329	0.667	385.996	0	PA_with_intermediate	test	ward_and_allport	82	32.0	0.667	to_hand	poldrack-single-stim	s639	False
0.1	385.996	0.972	386.968	0	PA_with_intermediate	test	ward_and_allport	71	32.0	0.972	to_board	poldrack-single-stim	s639	False
0.1	386.976	0.402	387.378	0	PA_with_intermediate	test	ward_and_allport	89	32.0	0.402	to_hand	poldrack-single-stim	s639	False
0.1	387.38	0.36	387.74	0	PA_with_intermediate	test	ward_and_allport	71	32.0	0.36	to_board	poldrack-single-stim	s639	False
1.0	387.751	2.136	387.75	0	PA_with_intermediate	test	ward_and_allport	-1	32.0	n/a	feedback	poldrack-single-stim	s639	False
3.859	389.898	3.859	393.757	1	PA_with_intermediate	test	ward_and_allport	82	33.0	3.859	to_hand	poldrack-single-stim	s639	False
0.1	393.758	0.258	394.016	0	PA_with_intermediate	test	ward_and_allport	89	33.0	0.258	to_board	poldrack-single-stim	s639	False
0.1	394.027	1.143	395.17	0	PA_with_intermediate	test	ward_and_allport	82	33.0	1.143	to_hand	poldrack-single-stim	s639	False
0.1	395.172	0.321	395.493	0	PA_with_intermediate	test	ward_and_allport	71	33.0	0.321	to_board	poldrack-single-stim	s639	False
0.1	395.503	0.351	395.854	0	PA_with_intermediate	test	ward_and_allport	89	33.0	0.351	to_hand	poldrack-single-stim	s639	False
0.1	395.855	0.327	396.182	0	PA_with_intermediate	test	ward_and_allport	71	33.0	0.327	to_board	poldrack-single-stim	s639	False
1.0	396.194	2.0	396.193	0	PA_with_intermediate	test	ward_and_allport	-1	33.0	n/a	feedback	poldrack-single-stim	s639	False
3.204	398.204	3.204	401.408	1	PA_with_intermediate	test	ward_and_allport	71	34.0	3.204	to_hand	poldrack-single-stim	s639	False
0.1	401.409	0.318	401.727	0	PA_with_intermediate	test	ward_and_allport	89	34.0	0.318	to_board	poldrack-single-stim	s639	False
0.1	401.734	0.325	402.059	0	PA_with_intermediate	test	ward_and_allport	71	34.0	0.325	to_hand	poldrack-single-stim	s639	False
0.1	402.059	0.368	402.427	0	PA_with_intermediate	test	ward_and_allport	82	34.0	0.368	to_board	poldrack-single-stim	s639	False
0.1	402.437	0.408	402.845	0	PA_with_intermediate	test	ward_and_allport	89	34.0	0.408	to_hand	poldrack-single-stim	s639	False
0.1	402.846	0.467	403.313	0	PA_with_intermediate	test	ward_and_allport	82	34.0	0.467	to_board	poldrack-single-stim	s639	False
1.0	403.323	2.0	403.322	0	PA_with_intermediate	test	ward_and_allport	-1	34.0	n/a	feedback	poldrack-single-stim	s639	False
2.375	405.332	2.375	407.707	1	PA_without_intermediate	test	ward_and_allport	89	35.0	2.375	to_hand	poldrack-single-stim	s639	False
0.1	407.708	0.414	408.122	0	PA_without_intermediate	test	ward_and_allport	82	35.0	0.414	to_board	poldrack-single-stim	s639	False
0.1	408.13	0.69	408.82	0	PA_without_intermediate	test	ward_and_allport	89	35.0	0.69	to_hand	poldrack-single-stim	s639	False
0.1	408.821	0.708	409.529	0	PA_without_intermediate	test	ward_and_allport	82	35.0	0.708	to_board	poldrack-single-stim	s639	False
0.1	409.536	0.858	410.394	0	PA_without_intermediate	test	ward_and_allport	89	35.0	0.858	to_hand	poldrack-single-stim	s639	False
0.1	410.396	0.397	410.793	0	PA_without_intermediate	test	ward_and_allport	71	35.0	0.397	to_board	poldrack-single-stim	s639	False
1.0	410.803	2.408	410.802	0	PA_without_intermediate	test	ward_and_allport	-1	35.0	n/a	feedback	poldrack-single-stim	s639	False
5.396	413.22	5.396	418.616	1	PA_with_intermediate	test	ward_and_allport	82	36.0	5.396	to_hand	poldrack-single-stim	s639	False
0.1	418.618	0.487	419.105	0	PA_with_intermediate	test	ward_and_allport	71	36.0	0.487	to_board	poldrack-single-stim	s639	False
0.1	419.113	0.487	419.6	0	PA_with_intermediate	test	ward_and_allport	82	36.0	0.487	to_hand	poldrack-single-stim	s639	False
0.1	419.602	0.475	420.077	0	PA_with_intermediate	test	ward_and_allport	89	36.0	0.475	to_board	poldrack-single-stim	s639	False
0.1	420.087	0.671	420.758	0	PA_with_intermediate	test	ward_and_allport	71	36.0	0.671	to_hand	poldrack-single-stim	s639	False
0.1	420.759	0.581	421.34	0	PA_with_intermediate	test	ward_and_allport	82	36.0	0.581	to_board	poldrack-single-stim	s639	False
1.0	421.351	3.768	421.35	0	PA_with_intermediate	test	ward_and_allport	-1	36.0	n/a	feedback	poldrack-single-stim	s639	False
2.458	425.13	2.458	427.588	1	PA_with_intermediate	test	ward_and_allport	89	37.0	2.458	to_hand	poldrack-single-stim	s639	False
0.1	427.59	0.504	428.094	0	PA_with_intermediate	test	ward_and_allport	82	37.0	0.504	to_board	poldrack-single-stim	s639	False
0.1	428.104	0.433	428.537	0	PA_with_intermediate	test	ward_and_allport	89	37.0	0.433	to_hand	poldrack-single-stim	s639	False
0.1	428.537	0.385	428.922	0	PA_with_intermediate	test	ward_and_allport	71	37.0	0.385	to_board	poldrack-single-stim	s639	False
0.1	428.933	0.416	429.349	0	PA_with_intermediate	test	ward_and_allport	82	37.0	0.416	to_hand	poldrack-single-stim	s639	False
0.1	429.35	0.296	429.646	0	PA_with_intermediate	test	ward_and_allport	89	37.0	0.296	to_board	poldrack-single-stim	s639	False
1.0	429.656	2.68	429.655	0	PA_with_intermediate	test	ward_and_allport	-1	37.0	n/a	feedback	poldrack-single-stim	s639	False
6.514	432.345	6.514	438.859	1	PA_without_intermediate	test	ward_and_allport	89	38.0	6.514	to_hand	poldrack-single-stim	s639	False
0.1	438.861	1.583	440.444	0	PA_without_intermediate	test	ward_and_allport	71	38.0	1.583	to_board	poldrack-single-stim	s639	False
0.1	440.454	0.777	441.231	0	PA_without_intermediate	test	ward_and_allport	89	38.0	0.777	to_hand	poldrack-single-stim	s639	False
0.1	441.232	0.391	441.623	0	PA_without_intermediate	test	ward_and_allport	71	38.0	0.391	to_board	poldrack-single-stim	s639	False
0.1	441.633	0.558	442.191	0	PA_without_intermediate	test	ward_and_allport	89	38.0	0.558	to_hand	poldrack-single-stim	s639	False
0.1	442.193	0.454	442.647	0	PA_without_intermediate	test	ward_and_allport	82	38.0	0.454	to_board	poldrack-single-stim	s639	False
1.0	442.659	3.224	442.658	0	PA_without_intermediate	test	ward_and_allport	-1	38.0	n/a	feedback	poldrack-single-stim	s639	False
2.758	445.893	2.758	448.651	1	PA_without_intermediate	test	ward_and_allport	71	39.0	2.758	to_hand	poldrack-single-stim	s639	False
0.1	448.653	0.293	448.946	0	PA_without_intermediate	test	ward_and_allport	89	39.0	0.293	to_board	poldrack-single-stim	s639	False
0.1	448.954	0.381	449.335	0	PA_without_intermediate	test	ward_and_allport	71	39.0	0.381	to_hand	poldrack-single-stim	s639	False
0.1	449.336	0.289	449.625	0	PA_without_intermediate	test	ward_and_allport	82	39.0	0.289	to_board	poldrack-single-stim	s639	False
0.1	449.636	0.341	449.977	0	PA_without_intermediate	test	ward_and_allport	71	39.0	0.341	to_hand	poldrack-single-stim	s639	False
0.1	449.979	0.307	450.286	0	PA_without_intermediate	test	ward_and_allport	89	39.0	0.307	to_board	poldrack-single-stim	s639	False
1.0	450.297	3.36	450.296	0	PA_without_intermediate	test	ward_and_allport	-1	39.0	n/a	feedback	poldrack-single-stim	s639	False
3.409	453.666	3.409	457.075	1	PA_without_intermediate	test	ward_and_allport	89	40.0	3.409	to_hand	poldrack-single-stim	s639	False
0.1	457.076	0.266	457.342	0	PA_without_intermediate	test	ward_and_allport	71	40.0	0.266	to_board	poldrack-single-stim	s639	False
0.1	457.349	0.375	457.724	0	PA_without_intermediate	test	ward_and_allport	89	40.0	0.375	to_hand	poldrack-single-stim	s639	False
0.1	457.725	0.36	458.085	0	PA_without_intermediate	test	ward_and_allport	82	40.0	0.36	to_board	poldrack-single-stim	s639	False
0.1	458.094	0.346	458.44	0	PA_without_intermediate	test	ward_and_allport	89	40.0	0.346	to_hand	poldrack-single-stim	s639	False
0.1	458.441	0.287	458.728	0	PA_without_intermediate	test	ward_and_allport	71	40.0	0.287	to_board	poldrack-single-stim	s639	False
1.0	458.74	2.0	458.739	0	PA_without_intermediate	test	ward_and_allport	-1	40.0	n/a	feedback	poldrack-single-stim	s639	False
2.598	460.751	2.598	463.349	1	PA_without_intermediate	test	ward_and_allport	71	41.0	2.598	to_hand	poldrack-single-stim	s639	False
0.1	463.35	0.241	463.591	0	PA_without_intermediate	test	ward_and_allport	89	41.0	0.241	to_board	poldrack-single-stim	s639	False
0.1	463.599	0.276	463.875	0	PA_without_intermediate	test	ward_and_allport	71	41.0	0.276	to_hand	poldrack-single-stim	s639	False
0.1	463.876	0.227	464.103	0	PA_without_intermediate	test	ward_and_allport	89	41.0	0.227	to_board	poldrack-single-stim	s639	False
0.1	464.111	0.373	464.484	0	PA_without_intermediate	test	ward_and_allport	71	41.0	0.373	to_hand	poldrack-single-stim	s639	False
0.1	464.485	0.465	464.95	0	PA_without_intermediate	test	ward_and_allport	82	41.0	0.465	to_board	poldrack-single-stim	s639	False
1.0	464.959	2.408	464.958	0	PA_without_intermediate	test	ward_and_allport	-1	41.0	n/a	feedback	poldrack-single-stim	s639	False
2.97	467.376	2.97	470.346	1	PA_with_intermediate	test	ward_and_allport	71	42.0	2.97	to_hand	poldrack-single-stim	s639	False
0.1	470.347	0.322	470.669	0	PA_with_intermediate	test	ward_and_allport	82	42.0	0.322	to_board	poldrack-single-stim	s639	False
0.1	470.676	0.296	470.972	0	PA_with_intermediate	test	ward_and_allport	71	42.0	0.296	to_hand	poldrack-single-stim	s639	False
0.1	470.973	0.248	471.221	0	PA_with_intermediate	test	ward_and_allport	89	42.0	0.248	to_board	poldrack-single-stim	s639	False
0.1	471.232	0.679	471.911	0	PA_with_intermediate	test	ward_and_allport	82	42.0	0.679	to_hand	poldrack-single-stim	s639	False
0.1	471.913	0.763	472.676	0	PA_with_intermediate	test	ward_and_allport	71	42.0	0.763	to_board	poldrack-single-stim	s639	False
1.0	472.688	2.136	472.687	0	PA_with_intermediate	test	ward_and_allport	-1	42.0	n/a	feedback	poldrack-single-stim	s639	False
4.437	474.835	4.437	479.272	1	PA_without_intermediate	test	ward_and_allport	89	43.0	4.437	to_hand	poldrack-single-stim	s639	False
0.1	479.274	0.267	479.541	0	PA_without_intermediate	test	ward_and_allport	71	43.0	0.267	to_board	poldrack-single-stim	s639	False
0.1	479.551	0.285	479.836	0	PA_without_intermediate	test	ward_and_allport	89	43.0	0.285	to_hand	poldrack-single-stim	s639	False
0.1	479.838	0.302	480.14	0	PA_without_intermediate	test	ward_and_allport	71	43.0	0.302	to_board	poldrack-single-stim	s639	False
0.1	480.15	0.415	480.565	0	PA_without_intermediate	test	ward_and_allport	89	43.0	0.415	to_hand	poldrack-single-stim	s639	False
0.1	480.566	0.318	480.884	0	PA_without_intermediate	test	ward_and_allport	82	43.0	0.318	to_board	poldrack-single-stim	s639	False
1.0	480.895	5.128	480.894	0	PA_without_intermediate	test	ward_and_allport	-1	43.0	n/a	feedback	poldrack-single-stim	s639	False
1.694	486.032	1.694	487.726	1	PA_without_intermediate	test	ward_and_allport	89	44.0	1.694	to_hand	poldrack-single-stim	s639	False
0.1	487.728	0.532	488.26	0	PA_without_intermediate	test	ward_and_allport	82	44.0	0.532	to_board	poldrack-single-stim	s639	False
0.1	488.271	0.586	488.857	0	PA_without_intermediate	test	ward_and_allport	89	44.0	0.586	to_hand	poldrack-single-stim	s639	False
0.1	488.859	0.969	489.828	0	PA_without_intermediate	test	ward_and_allport	82	44.0	0.969	to_board	poldrack-single-stim	s639	False
0.1	489.841	0.518	490.359	0	PA_without_intermediate	test	ward_and_allport	89	44.0	0.518	to_hand	poldrack-single-stim	s639	False
0.1	490.36	0.338	490.698	0	PA_without_intermediate	test	ward_and_allport	71	44.0	0.338	to_board	poldrack-single-stim	s639	False
1.0	490.71	2.136	490.709	0	PA_without_intermediate	test	ward_and_allport	-1	44.0	n/a	feedback	poldrack-single-stim	s639	False
1.574	497.86	1.574	499.434	1	PA_without_intermediate	test	ward_and_allport	71	45.0	1.574	to_hand	poldrack-single-stim	s639	False
0.1	499.436	0.396	499.832	0	PA_without_intermediate	test	ward_and_allport	89	45.0	0.396	to_board	poldrack-single-stim	s639	False
0.1	499.844	0.538	500.382	0	PA_without_intermediate	test	ward_and_allport	71	45.0	0.538	to_hand	poldrack-single-stim	s639	False
0.1	500.384	1.059	501.443	0	PA_without_intermediate	test	ward_and_allport	89	45.0	1.059	to_board	poldrack-single-stim	s639	False
0.1	501.455	0.354	501.809	0	PA_without_intermediate	test	ward_and_allport	71	45.0	0.354	to_hand	poldrack-single-stim	s639	False
0.1	501.811	0.439	502.25	0	PA_without_intermediate	test	ward_and_allport	82	45.0	0.439	to_board	poldrack-single-stim	s639	False
1.0	502.263	5.264	502.262	0	PA_without_intermediate	test	ward_and_allport	-1	45.0	n/a	feedback	poldrack-single-stim	s639	False
2.239	507.538	2.239	509.777	1	PA_with_intermediate	test	ward_and_allport	89	46.0	2.239	to_hand	poldrack-single-stim	s639	False
0.1	509.779	0.263	510.042	0	PA_with_intermediate	test	ward_and_allport	82	46.0	0.263	to_board	poldrack-single-stim	s639	False
0.1	510.053	0.495	510.548	0	PA_with_intermediate	test	ward_and_allport	89	46.0	0.495	to_hand	poldrack-single-stim	s639	False
0.1	510.549	0.353	510.902	0	PA_with_intermediate	test	ward_and_allport	71	46.0	0.353	to_board	poldrack-single-stim	s639	False
0.1	510.913	0.406	511.319	0	PA_with_intermediate	test	ward_and_allport	89	46.0	0.406	to_hand	poldrack-single-stim	s639	False
0.1	511.32	0.826	512.146	0	PA_with_intermediate	test	ward_and_allport	89	46.0	0.826	to_board	poldrack-single-stim	s639	False
0.1	512.157	0.305	512.462	0	PA_with_intermediate	test	ward_and_allport	82	46.0	0.305	to_hand	poldrack-single-stim	s639	False
0.1	512.463	0.46	512.923	0	PA_with_intermediate	test	ward_and_allport	71	46.0	0.46	to_board	poldrack-single-stim	s639	False
1.0	512.935	4.04	512.934	0	PA_with_intermediate	test	ward_and_allport	-1	46.0	n/a	feedback	poldrack-single-stim	s639	False
2.559	516.985	2.559	519.544	1	PA_with_intermediate	test	ward_and_allport	71	47.0	2.559	to_hand	poldrack-single-stim	s639	False
0.1	519.546	0.408	519.954	0	PA_with_intermediate	test	ward_and_allport	82	47.0	0.408	to_board	poldrack-single-stim	s639	False
0.1	519.961	0.34	520.301	0	PA_with_intermediate	test	ward_and_allport	71	47.0	0.34	to_hand	poldrack-single-stim	s639	False
0.1	520.303	0.279	520.582	0	PA_with_intermediate	test	ward_and_allport	89	47.0	0.279	to_board	poldrack-single-stim	s639	False
0.1	520.593	0.504	521.097	0	PA_with_intermediate	test	ward_and_allport	82	47.0	0.504	to_hand	poldrack-single-stim	s639	False
0.1	521.098	0.399	521.497	0	PA_with_intermediate	test	ward_and_allport	89	47.0	0.399	to_board	poldrack-single-stim	s639	False
1.0	521.51	2.136	521.509	0	PA_with_intermediate	test	ward_and_allport	-1	47.0	n/a	feedback	poldrack-single-stim	s639	False
