onset	duration	movement_onset	EV	action	block_duration	experiment_exp_id	gain_amount	gain_probability	key_press	loss_amount	loss_probability	num_cards	num_click_in_round	num_loss_cards	risk	response_time	total_cards	trial_id	trial_type	worker_id	junk	feedback
3.009	3.819	6.828	-2.2535273413163583	end_round	3.819	columbia_card_task_fmri	12.0	0.8333333333333334	71.0	-70.0	0.1666666666666666	6.0	1.0	1.0	-0.8573593837825051	3.819	0.0	stim	poldrack-single-stim	s639	False	1
7.582	1.5	6.831	n/a	-1.0	2.25	columbia_card_task_fmri	n/a	n/a	-1.0	n/a	n/a	n/a	n/a	n/a	n/a	n/a	n/a	ITI	poldrack-single-stim	s639	False	0
9.083	4.714	13.797	-1.4201940079830246	end_round	4.714	columbia_card_task_fmri	14.0	0.8333333333333334	71.0	-75.0	0.1666666666666666	6.0	1.0	1.0	1.7509435024178543	4.714	0.0	stim	poldrack-single-stim	s639	False	1
14.551	1.5	13.8	n/a	-1.0	2.386	columbia_card_task_fmri	n/a	n/a	-1.0	n/a	n/a	n/a	n/a	n/a	n/a	n/a	n/a	ITI	poldrack-single-stim	s639	False	0
16.188	1.931	18.119	0.2464726586836414	end_round	1.931	columbia_card_task_fmri	15.0	0.8333333333333334	71.0	-70.0	0.1666666666666666	6.0	1.0	1.0	0.260475776377028	1.931	0.0	stim	poldrack-single-stim	s639	False	1
18.872	1.5	18.121	n/a	-1.0	2.59	columbia_card_task_fmri	n/a	n/a	-1.0	n/a	n/a	n/a	n/a	n/a	n/a	n/a	n/a	ITI	poldrack-single-stim	s639	False	0
20.714	2.585	23.299	1.0798059920169754	draw_card	2.585	columbia_card_task_fmri	17.0	0.8333333333333334	89.0	-75.0	0.1666666666666666	6.0	1.0	1.0	2.86880823245874	2.585	n/a	stim	poldrack-single-stim	s639	False	1
23.304	1.285	24.589	-1.986860674649691	draw_card	1.285	columbia_card_task_fmri	17.0	0.8	89.0	-75.0	0.2	6.0	2.0	1.0	5.382089587072564	1.285	n/a	stim	poldrack-single-stim	s639	False	1
24.591	3.906	28.497	-6.586860674649692	end_round	3.906	columbia_card_task_fmri	17.0	0.75	71.0	-75.0	0.25	6.0	3.0	1.0	8.418901467025414	3.906	2.0	stim	poldrack-single-stim	s639	False	1
29.251	1.5	28.5	n/a	-1.0	2.658	columbia_card_task_fmri	n/a	n/a	-1.0	n/a	n/a	n/a	n/a	n/a	n/a	n/a	n/a	ITI	poldrack-single-stim	s639	False	0
31.161	4.441	35.602	2.413139325350308	draw_card	4.441	columbia_card_task_fmri	24.0	0.75	89.0	-60.0	0.25	8.0	1.0	2.0	4.955211460672174	4.441	n/a	stim	poldrack-single-stim	s639	False	1
35.604	1.294	36.898	-0.5868606746496925	end_round	1.294	columbia_card_task_fmri	24.0	0.7142857142857143	71.0	-60.0	0.2857142857142857	8.0	2.0	2.0	6.529280053642665	1.294	1.0	stim	poldrack-single-stim	s639	False	1
37.651	1.5	36.9	n/a	-1.0	2.386	columbia_card_task_fmri	n/a	n/a	-1.0	n/a	n/a	n/a	n/a	n/a	n/a	n/a	n/a	ITI	poldrack-single-stim	s639	False	0
39.288	3.64	42.928	2.413139325350308	draw_card	3.64	columbia_card_task_fmri	29.0	0.75	89.0	-75.0	0.25	8.0	1.0	2.0	13.61455519288088	3.64	n/a	stim	poldrack-single-stim	s639	False	1
42.929	2.527	45.456	-1.3011463889354042	draw_card	2.527	columbia_card_task_fmri	29.0	0.7142857142857143	89.0	-75.0	0.2857142857142857	8.0	2.0	2.0	15.563486530218	2.527	n/a	stim	poldrack-single-stim	s639	False	1
45.457	1.373	46.83	-6.253527341316357	end_round	1.373	columbia_card_task_fmri	29.0	0.6666666666666667	71.0	-75.0	0.3333333333333333	8.0	3.0	2.0	17.60699297165518	1.373	2.0	stim	poldrack-single-stim	s639	False	1
47.583	1.5	46.832	n/a	-1.0	2.386	columbia_card_task_fmri	n/a	n/a	-1.0	n/a	n/a	n/a	n/a	n/a	n/a	n/a	n/a	ITI	poldrack-single-stim	s639	False	0
49.221	4.198	53.419	-1.809082896871912	draw_card	4.198	columbia_card_task_fmri	17.0	0.7777777777777778	89.0	-65.0	0.2222222222222222	9.0	1.0	2.0	2.673117596508653	4.198	n/a	stim	poldrack-single-stim	s639	False	1
53.421	2.42	55.841	-4.086860674649692	end_round	2.42	columbia_card_task_fmri	17.0	0.75	71.0	-65.0	0.25	9.0	2.0	2.0	4.089301505675252	2.42	1.0	stim	poldrack-single-stim	s639	False	1
56.594	1.5	55.843	n/a	-1.0	2.25	columbia_card_task_fmri	n/a	n/a	-1.0	n/a	n/a	n/a	n/a	n/a	n/a	n/a	n/a	ITI	poldrack-single-stim	s639	False	0
58.097	4.769	62.866	2.513139325350308	draw_card	4.769	columbia_card_task_fmri	14.0	0.9	89.0	-95.0	0.1	10.0	1.0	1.0	1.282676177083168	4.769	n/a	stim	poldrack-single-stim	s639	False	1
62.868	1.243	64.111	1.302028214239195	end_round	1.243	columbia_card_task_fmri	14.0	0.8888888888888888	71.0	-95.0	0.1111111111111111	10.0	2.0	1.0	2.8378322962632083	1.243	1.0	stim	poldrack-single-stim	s639	False	1
64.864	1.5	64.113	n/a	-1.0	2.318	columbia_card_task_fmri	n/a	n/a	-1.0	n/a	n/a	n/a	n/a	n/a	n/a	n/a	n/a	ITI	poldrack-single-stim	s639	False	0
66.433	6.099	72.532	-1.5868606746496925	draw_card	6.099	columbia_card_task_fmri	15.0	0.8	89.0	-65.0	0.2	10.0	1.0	2.0	0.582791345427708	6.099	1.0	stim	poldrack-single-stim	s639	False	0
73.286	1.5	72.535	n/a	-1.0	2.25	columbia_card_task_fmri	n/a	n/a	-1.0	n/a	n/a	n/a	n/a	n/a	n/a	n/a	n/a	ITI	poldrack-single-stim	s639	False	0
74.788	4.746	79.534	0.0131393253503089	end_round	4.746	columbia_card_task_fmri	17.0	0.8	71.0	-65.0	0.2	10.0	1.0	2.0	1.3826601256487336	4.746	0.0	stim	poldrack-single-stim	s639	False	1
80.287	1.5	79.536	n/a	-1.0	2.25	columbia_card_task_fmri	n/a	n/a	-1.0	n/a	n/a	n/a	n/a	n/a	n/a	n/a	n/a	ITI	poldrack-single-stim	s639	False	0
81.79	7.801	89.591	-1.4201940079830246	end_round	7.801	columbia_card_task_fmri	13.0	0.8333333333333334	71.0	-70.0	0.1666666666666666	12.0	1.0	2.0	-0.4847492603167502	7.801	0.0	stim	poldrack-single-stim	s639	False	1
90.345	1.5	89.594	n/a	-1.0	2.386	columbia_card_task_fmri	n/a	n/a	-1.0	n/a	n/a	n/a	n/a	n/a	n/a	n/a	n/a	ITI	poldrack-single-stim	s639	False	0
91.982	2.689	94.671	-1.4201940079830246	end_round	2.689	columbia_card_task_fmri	15.0	0.8333333333333334	71.0	-80.0	0.1666666666666666	12.0	1.0	2.0	3.986683650247606	2.689	0.0	stim	poldrack-single-stim	s639	False	1
95.424	1.5	94.673	n/a	-1.0	2.386	columbia_card_task_fmri	n/a	n/a	-1.0	n/a	n/a	n/a	n/a	n/a	n/a	n/a	n/a	ITI	poldrack-single-stim	s639	False	0
97.062	2.604	99.666	-2.386860674649691	draw_card	2.604	columbia_card_task_fmri	14.0	0.8	89.0	-65.0	0.2	15.0	1.0	3.0	0.1828594461982327	2.604	n/a	stim	poldrack-single-stim	s639	False	1
99.669	2.875	102.544	-3.5154321032211198	end_round	2.875	columbia_card_task_fmri	14.0	0.7857142857142857	71.0	-65.0	0.2142857142857142	15.0	2.0	3.0	0.9984687072010844	2.875	1.0	stim	poldrack-single-stim	s639	False	1
103.297	1.5	102.546	n/a	-1.0	2.726	columbia_card_task_fmri	n/a	n/a	-1.0	n/a	n/a	n/a	n/a	n/a	n/a	n/a	n/a	ITI	poldrack-single-stim	s639	False	0
105.276	2.261	107.537	-2.4618606746496923	end_round	2.261	columbia_card_task_fmri	1.0	0.9375	71.0	-45.0	0.0625	16.0	1.0	1.0	-20.27230790630912	2.261	0.0	stim	poldrack-single-stim	s639	False	1
108.29	1.5	107.539	n/a	-1.0	2.454	columbia_card_task_fmri	n/a	n/a	-1.0	n/a	n/a	n/a	n/a	n/a	n/a	n/a	n/a	ITI	poldrack-single-stim	s639	False	0
109.996	3.369	113.365	-1.5243606746496925	end_round	3.369	columbia_card_task_fmri	15.0	0.8125	71.0	-70.0	0.1875	16.0	1.0	3.0	1.7591524181543932	3.369	0.0	stim	poldrack-single-stim	s639	False	1
114.118	1.5	113.367	n/a	-1.0	2.318	columbia_card_task_fmri	n/a	n/a	-1.0	n/a	n/a	n/a	n/a	n/a	n/a	n/a	n/a	ITI	poldrack-single-stim	s639	False	0
115.689	4.708	120.397	5.413139325350308	draw_card	4.708	columbia_card_task_fmri	30.0	0.7	89.0	-50.0	0.3	10.0	1.0	3.0	5.242712935856261	4.708	n/a	stim	poldrack-single-stim	s639	False	1
120.399	1.097	121.496	2.746472658683647	end_round	1.097	columbia_card_task_fmri	30.0	0.6666666666666667	71.0	-50.0	0.3333333333333333	10.0	2.0	3.0	6.294338063846979	1.097	1.0	stim	poldrack-single-stim	s639	False	1
122.25	1.5	121.499	n/a	-1.0	2.318	columbia_card_task_fmri	n/a	n/a	-1.0	n/a	n/a	n/a	n/a	n/a	n/a	n/a	n/a	ITI	poldrack-single-stim	s639	False	0
123.82	3.095	126.915	4.813139325350308	draw_card	3.095	columbia_card_task_fmri	17.0	0.8666666666666667	89.0	-70.0	0.1333333333333333	15.0	1.0	2.0	-1.8424542190040756	3.095	n/a	stim	poldrack-single-stim	s639	False	1
126.917	1.415	128.332	3.9845678967788807	draw_card	1.415	columbia_card_task_fmri	17.0	0.8571428571428572	89.0	-70.0	0.1428571428571428	15.0	2.0	2.0	-0.9732753910137256	1.415	n/a	stim	poldrack-single-stim	s639	False	1
128.333	2.88	131.213	3.0285239407349227	draw_card	2.88	columbia_card_task_fmri	17.0	0.8461538461538461	89.0	-70.0	0.1538461538461538	15.0	3.0	2.0	-0.0273985852451836	2.88	n/a	stim	poldrack-single-stim	s639	False	1
131.215	2.941	134.156	1.9131393253503093	draw_card	2.941	columbia_card_task_fmri	17.0	0.8333333333333334	89.0	-70.0	0.1666666666666666	15.0	4.0	2.0	1.0057068325130911	2.941	n/a	stim	poldrack-single-stim	s639	False	1
134.159	1.555	135.714	0.5949575071684874	end_round	1.555	columbia_card_task_fmri	17.0	0.8181818181818181	71.0	-70.0	0.1818181818181818	15.0	5.0	2.0	2.1379728476942006	1.555	4.0	stim	poldrack-single-stim	s639	False	1
136.467	1.5	135.716	n/a	-1.0	2.59	columbia_card_task_fmri	n/a	n/a	-1.0	n/a	n/a	n/a	n/a	n/a	n/a	n/a	n/a	ITI	poldrack-single-stim	s639	False	0
138.309	8.077	146.386	0.0381393253503075	draw_card	8.077	columbia_card_task_fmri	7.0	0.9375	89.0	-95.0	0.0625	16.0	1.0	1.0	-6.725347172024637	8.077	n/a	stim	poldrack-single-stim	s639	False	1
146.388	0.55	146.938	-0.3868606746496923	draw_card	0.55	columbia_card_task_fmri	7.0	0.9333333333333332	89.0	-95.0	0.0666666666666666	16.0	2.0	1.0	-5.972552102178572	0.55	n/a	stim	poldrack-single-stim	s639	False	1
146.94	2.16	149.1	-0.8725749603639781	draw_card	2.16	columbia_card_task_fmri	7.0	0.9285714285714286	89.0	-95.0	0.0714285714285714	16.0	3.0	1.0	-5.147018564649354	2.16	n/a	stim	poldrack-single-stim	s639	False	1
149.103	0.907	150.01	-1.4330145208035392	draw_card	0.907	columbia_card_task_fmri	7.0	0.9230769230769232	89.0	-95.0	0.0769230769230769	16.0	4.0	1.0	-4.236380394076331	0.907	n/a	stim	poldrack-single-stim	s639	False	1
150.012	1.363	151.375	-2.0868606746496923	end_round	1.363	columbia_card_task_fmri	7.0	0.9166666666666666	71.0	-95.0	0.0833333333333333	16.0	5.0	1.0	-3.2251711191393326	1.363	4.0	stim	poldrack-single-stim	s639	False	1
152.128	1.5	151.377	n/a	-1.0	2.726	columbia_card_task_fmri	n/a	n/a	-1.0	n/a	n/a	n/a	n/a	n/a	n/a	n/a	n/a	ITI	poldrack-single-stim	s639	False	0
154.107	4.877	158.984	1.6006393253503075	draw_card	4.877	columbia_card_task_fmri	9.0	0.9375	89.0	-100.0	0.0625	16.0	1.0	1.0	-5.031364685107285	4.877	n/a	stim	poldrack-single-stim	s639	False	1
158.986	3.74	162.726	1.146472658683641	draw_card	3.74	columbia_card_task_fmri	9.0	0.9333333333333332	89.0	-100.0	0.0666666666666666	16.0	2.0	1.0	-4.226879808169159	3.74	n/a	stim	poldrack-single-stim	s639	False	1
162.728	0.811	163.539	0.6274250396360228	end_round	0.811	columbia_card_task_fmri	9.0	0.9285714285714286	71.0	-100.0	0.0714285714285714	16.0	3.0	1.0	-3.3446637653894378	0.811	2.0	stim	poldrack-single-stim	s639	False	1
164.293	1.5	163.542	n/a	-1.0	2.522	columbia_card_task_fmri	n/a	n/a	-1.0	n/a	n/a	n/a	n/a	n/a	n/a	n/a	n/a	ITI	poldrack-single-stim	s639	False	0
166.068	4.271	170.339	2.538139325350308	draw_card	4.271	columbia_card_task_fmri	15.0	0.875	89.0	-80.0	0.125	16.0	1.0	2.0	0.0011877730191116	4.271	n/a	stim	poldrack-single-stim	s639	False	1
170.341	3.395	173.736	1.7464726586836414	end_round	3.395	columbia_card_task_fmri	15.0	0.8666666666666667	71.0	-80.0	0.1333333333333333	16.0	2.0	2.0	0.8765326541363123	3.395	1.0	stim	poldrack-single-stim	s639	False	1
174.49	1.5	173.739	n/a	-1.0	3.134	columbia_card_task_fmri	n/a	n/a	-1.0	n/a	n/a	n/a	n/a	n/a	n/a	n/a	n/a	ITI	poldrack-single-stim	s639	False	0
176.876	3.698	180.574	4.663139325350308	draw_card	3.698	columbia_card_task_fmri	16.0	0.875	89.0	-70.0	0.125	16.0	1.0	2.0	-2.9747090283973527	3.698	n/a	stim	poldrack-single-stim	s639	False	1
180.577	1.93	182.507	3.946472658683641	draw_card	1.93	columbia_card_task_fmri	16.0	0.8666666666666667	89.0	-70.0	0.1333333333333333	16.0	2.0	2.0	-2.1823211675052647	1.93	n/a	stim	poldrack-single-stim	s639	False	1
182.51	0.715	183.225	3.127425039636023	end_round	0.715	columbia_card_task_fmri	16.0	0.8571428571428572	71.0	-70.0	0.1428571428571428	16.0	3.0	2.0	-1.323136743106648	0.715	2.0	stim	poldrack-single-stim	s639	False	1
183.979	1.5	183.228	n/a	-1.0	2.386	columbia_card_task_fmri	n/a	n/a	-1.0	n/a	n/a	n/a	n/a	n/a	n/a	n/a	n/a	ITI	poldrack-single-stim	s639	False	0
185.618	9.321	194.939	5.975639325350308	end_round	9.321	columbia_card_task_fmri	30.0	0.6875	71.0	-45.0	0.3125	16.0	1.0	5.0	3.3457940776771977	9.321	0.0	stim	poldrack-single-stim	s639	False	1
195.692	1.5	194.941	n/a	-1.0	2.386	columbia_card_task_fmri	n/a	n/a	-1.0	n/a	n/a	n/a	n/a	n/a	n/a	n/a	n/a	ITI	poldrack-single-stim	s639	False	0
197.331	6.786	204.117	-2.2535273413163583	end_round	6.786	columbia_card_task_fmri	13.0	0.8333333333333334	71.0	-75.0	0.1666666666666666	6.0	1.0	1.0	1.378324489658972	6.786	0.0	stim	poldrack-single-stim	s639	False	1
204.871	1.5	204.12	n/a	-1.0	2.318	columbia_card_task_fmri	n/a	n/a	-1.0	n/a	n/a	n/a	n/a	n/a	n/a	n/a	n/a	ITI	poldrack-single-stim	s639	False	0
206.442	5.186	211.628	-0.5868606746496907	end_round	5.186	columbia_card_task_fmri	14.0	0.8333333333333334	71.0	-70.0	0.1666666666666666	6.0	1.0	1.0	-0.1121375212632962	5.186	0.0	stim	poldrack-single-stim	s639	False	1
212.382	1.5	211.631	n/a	-1.0	2.318	columbia_card_task_fmri	n/a	n/a	-1.0	n/a	n/a	n/a	n/a	n/a	n/a	n/a	n/a	ITI	poldrack-single-stim	s639	False	0
213.953	1.93	215.883	-0.5868606746496907	end_round	1.93	columbia_card_task_fmri	16.0	0.8333333333333334	71.0	-80.0	0.1666666666666666	6.0	1.0	1.0	4.359310991432693	1.93	0.0	stim	poldrack-single-stim	s639	False	1
216.637	1.5	215.886	n/a	-1.0	2.862	columbia_card_task_fmri	n/a	n/a	-1.0	n/a	n/a	n/a	n/a	n/a	n/a	n/a	n/a	ITI	poldrack-single-stim	s639	False	0
218.751	6.733	225.484	1.9131393253503093	end_round	6.733	columbia_card_task_fmri	17.0	0.8333333333333334	71.0	-70.0	0.1666666666666666	6.0	1.0	1.0	1.0057068325130911	6.733	0.0	stim	poldrack-single-stim	s639	False	1
226.239	1.5	225.488	n/a	-1.0	2.726	columbia_card_task_fmri	n/a	n/a	-1.0	n/a	n/a	n/a	n/a	n/a	n/a	n/a	n/a	ITI	poldrack-single-stim	s639	False	0
228.218	2.112	230.33	1.9131393253503075	end_round	2.112	columbia_card_task_fmri	25.0	0.75	71.0	-65.0	0.25	8.0	1.0	2.0	7.552972106476517	2.112	0.0	stim	poldrack-single-stim	s639	False	1
231.083	1.5	230.332	n/a	-1.0	2.25	columbia_card_task_fmri	n/a	n/a	-1.0	n/a	n/a	n/a	n/a	n/a	n/a	n/a	n/a	ITI	poldrack-single-stim	s639	False	0
232.586	2.074	234.66	1.9131393253503075	end_round	2.074	columbia_card_task_fmri	30.0	0.75	71.0	-80.0	0.25	8.0	1.0	2.0	16.212422853241243	2.074	0.0	stim	poldrack-single-stim	s639	False	1
235.414	1.5	234.663	n/a	-1.0	2.318	columbia_card_task_fmri	n/a	n/a	-1.0	n/a	n/a	n/a	n/a	n/a	n/a	n/a	n/a	ITI	poldrack-single-stim	s639	False	0
236.984	3.13	240.114	1.6131393253503086	draw_card	3.13	columbia_card_task_fmri	13.0	0.9	89.0	-95.0	0.1	10.0	1.0	1.0	0.9827249257388502	3.13	n/a	stim	poldrack-single-stim	s639	False	1
240.116	2.748	242.864	0.4131393253503075	draw_card	2.748	columbia_card_task_fmri	13.0	0.8888888888888888	89.0	-95.0	0.1111111111111111	10.0	2.0	1.0	2.523609151924269	2.748	n/a	stim	poldrack-single-stim	s639	False	1
242.868	1.493	244.361	-1.0868606746496925	end_round	1.493	columbia_card_task_fmri	13.0	0.875	71.0	-95.0	0.125	10.0	3.0	1.0	4.299874059827872	1.493	2.0	stim	poldrack-single-stim	s639	False	1
245.115	1.5	244.364	n/a	-1.0	2.454	columbia_card_task_fmri	n/a	n/a	-1.0	n/a	n/a	n/a	n/a	n/a	n/a	n/a	n/a	ITI	poldrack-single-stim	s639	False	0
246.821	3.265	250.086	3.013139325350308	draw_card	3.265	columbia_card_task_fmri	14.0	0.9	89.0	-90.0	0.1	10.0	1.0	1.0	-0.2170707073150275	3.265	1.0	stim	poldrack-single-stim	s639	False	0
250.841	1.5	250.09	n/a	-1.0	2.522	columbia_card_task_fmri	n/a	n/a	-1.0	n/a	n/a	n/a	n/a	n/a	n/a	n/a	n/a	ITI	poldrack-single-stim	s639	False	0
252.616	4.069	256.685	-1.7868606746496918	draw_card	4.069	columbia_card_task_fmri	16.0	0.8	89.0	-70.0	0.2	10.0	1.0	2.0	2.98241599166699	4.069	n/a	stim	poldrack-single-stim	s639	False	1
256.688	1.71	258.398	-3.697971785760803	draw_card	1.71	columbia_card_task_fmri	16.0	0.7777777777777778	89.0	-70.0	0.2222222222222222	10.0	2.0	2.0	4.3358415398941474	1.71	n/a	stim	poldrack-single-stim	s639	False	1
258.401	1.828	260.229	-6.086860674649692	draw_card	1.828	columbia_card_task_fmri	16.0	0.75	89.0	-70.0	0.25	10.0	3.0	2.0	5.8211267843559895	1.828	3.0	stim	poldrack-single-stim	s639	False	0
260.982	1.5	260.231	n/a	-1.0	2.318	columbia_card_task_fmri	n/a	n/a	-1.0	n/a	n/a	n/a	n/a	n/a	n/a	n/a	n/a	ITI	poldrack-single-stim	s639	False	0
262.553	3.098	265.651	-2.5035273413163583	end_round	3.098	columbia_card_task_fmri	7.0	0.9166666666666666	71.0	-100.0	0.0833333333333333	12.0	1.0	1.0	-1.8435294721527848	3.098	0.0	stim	poldrack-single-stim	s639	False	1
266.406	1.5	265.655	n/a	-1.0	2.522	columbia_card_task_fmri	n/a	n/a	-1.0	n/a	n/a	n/a	n/a	n/a	n/a	n/a	n/a	ITI	poldrack-single-stim	s639	False	0
268.181	2.134	270.315	-2.253527341316357	end_round	2.134	columbia_card_task_fmri	14.0	0.8333333333333334	71.0	-80.0	0.1666666666666666	12.0	1.0	2.0	3.614057386605438	2.134	0.0	stim	poldrack-single-stim	s639	False	1
271.069	1.5	270.318	n/a	-1.0	2.998	columbia_card_task_fmri	n/a	n/a	-1.0	n/a	n/a	n/a	n/a	n/a	n/a	n/a	n/a	ITI	poldrack-single-stim	s639	False	0
273.319	5.008	278.327	-0.5868606746496925	draw_card	5.008	columbia_card_task_fmri	15.0	0.8333333333333334	89.0	-75.0	0.1666666666666666	12.0	1.0	2.0	2.123563825616713	5.008	n/a	stim	poldrack-single-stim	s639	False	1
278.331	0.868	279.199	-1.9504970382860576	end_round	0.868	columbia_card_task_fmri	15.0	0.8181818181818181	71.0	-75.0	0.1818181818181818	12.0	2.0	2.0	3.294885646448172	0.868	1.0	stim	poldrack-single-stim	s639	False	1
279.952	1.5	279.201	n/a	-1.0	2.318	columbia_card_task_fmri	n/a	n/a	-1.0	n/a	n/a	n/a	n/a	n/a	n/a	n/a	n/a	ITI	poldrack-single-stim	s639	False	0
281.524	2.217	283.741	-1.5868606746496925	draw_card	2.217	columbia_card_task_fmri	15.0	0.8	89.0	-65.0	0.2	15.0	1.0	3.0	0.582791345427708	2.217	n/a	stim	poldrack-single-stim	s639	False	1
283.742	1.127	284.869	-2.7297178175068346	draw_card	1.127	columbia_card_task_fmri	15.0	0.7857142857142857	89.0	-65.0	0.2142857142857142	15.0	2.0	3.0	1.4087282226766504	1.127	n/a	stim	poldrack-single-stim	s639	False	1
284.872	0.865	285.737	-4.048399136188156	end_round	0.865	columbia_card_task_fmri	15.0	0.7692307692307692	71.0	-65.0	0.2307692307692307	15.0	3.0	3.0	2.2885225773207054	0.865	2.0	stim	poldrack-single-stim	s639	False	1
286.49	1.5	285.739	n/a	-1.0	2.25	columbia_card_task_fmri	n/a	n/a	-1.0	n/a	n/a	n/a	n/a	n/a	n/a	n/a	n/a	ITI	poldrack-single-stim	s639	False	0
287.994	2.98	290.974	-2.3368606746496923	draw_card	2.98	columbia_card_task_fmri	14.0	0.8125	89.0	-70.0	0.1875	16.0	1.0	3.0	1.368901820190878	2.98	n/a	stim	poldrack-single-stim	s639	False	1
290.977	0.813	291.79	-3.386860674649691	end_round	0.813	columbia_card_task_fmri	14.0	0.8	71.0	-70.0	0.2	16.0	2.0	3.0	2.1825351529659685	0.813	1.0	stim	poldrack-single-stim	s639	False	1
292.544	1.5	291.793	n/a	-1.0	2.454	columbia_card_task_fmri	n/a	n/a	-1.0	n/a	n/a	n/a	n/a	n/a	n/a	n/a	n/a	ITI	poldrack-single-stim	s639	False	0
294.25	3.088	297.338	-2.3993606746496923	draw_card	3.088	columbia_card_task_fmri	11.0	0.6875	89.0	-30.0	0.3125	16.0	1.0	5.0	-12.409521683855594	3.088	1.0	stim	poldrack-single-stim	s639	False	0
298.093	1.5	297.342	n/a	-1.0	2.318	columbia_card_task_fmri	n/a	n/a	-1.0	n/a	n/a	n/a	n/a	n/a	n/a	n/a	n/a	ITI	poldrack-single-stim	s639	False	0
299.663	2.892	302.555	2.413139325350308	draw_card	2.892	columbia_card_task_fmri	15.0	0.8666666666666667	89.0	-75.0	0.1333333333333333	15.0	1.0	2.0	-0.8228443512922752	2.892	n/a	stim	poldrack-single-stim	s639	False	1
302.557	1.204	303.761	1.5559964682074516	draw_card	1.204	columbia_card_task_fmri	15.0	0.8571428571428572	89.0	-75.0	0.1428571428571428	15.0	2.0	2.0	0.0763174301234386	1.204	n/a	stim	poldrack-single-stim	s639	False	1
303.765	1.614	305.379	0.5669854791964608	draw_card	1.614	columbia_card_task_fmri	15.0	0.8461538461538461	89.0	-75.0	0.1538461538461538	15.0	3.0	2.0	1.0548222325888332	1.614	n/a	stim	poldrack-single-stim	s639	False	1
305.381	1.115	306.496	-0.5868606746496925	draw_card	1.115	columbia_card_task_fmri	15.0	0.8333333333333334	89.0	-75.0	0.1666666666666666	15.0	4.0	2.0	2.123563825616713	1.115	n/a	stim	poldrack-single-stim	s639	False	1
306.499	0.996	307.495	-1.9504970382860576	end_round	0.996	columbia_card_task_fmri	15.0	0.8181818181818181	71.0	-75.0	0.1818181818181818	15.0	5.0	2.0	3.294885646448172	0.996	4.0	stim	poldrack-single-stim	s639	False	1
308.249	1.5	307.498	n/a	-1.0	2.318	columbia_card_task_fmri	n/a	n/a	-1.0	n/a	n/a	n/a	n/a	n/a	n/a	n/a	n/a	ITI	poldrack-single-stim	s639	False	0
309.82	3.658	313.478	4.146472658683642	draw_card	3.658	columbia_card_task_fmri	17.0	0.8666666666666667	89.0	-75.0	0.1333333333333333	15.0	1.0	2.0	-0.1430974111358978	3.658	n/a	stim	poldrack-single-stim	s639	False	1
313.482	1.046	314.528	3.270282182493167	draw_card	1.046	columbia_card_task_fmri	17.0	0.8571428571428572	89.0	-75.0	0.1428571428571428	15.0	2.0	2.0	0.7760528054100462	1.046	n/a	stim	poldrack-single-stim	s639	False	1
314.531	2.081	316.612	2.2592931715041544	draw_card	2.081	columbia_card_task_fmri	17.0	0.8461538461538461	89.0	-75.0	0.1538461538461538	15.0	3.0	2.0	1.77630940009643	2.081	n/a	stim	poldrack-single-stim	s639	False	1
316.616	0.972	317.588	1.0798059920169754	end_round	0.972	columbia_card_task_fmri	17.0	0.8333333333333334	71.0	-75.0	0.1666666666666666	15.0	4.0	2.0	2.86880823245874	0.972	3.0	stim	poldrack-single-stim	s639	False	1
318.343	1.5	317.592	n/a	-1.0	2.59	columbia_card_task_fmri	n/a	n/a	-1.0	n/a	n/a	n/a	n/a	n/a	n/a	n/a	n/a	ITI	poldrack-single-stim	s639	False	0
320.187	3.147	323.334	-0.2743606746496925	end_round	3.147	columbia_card_task_fmri	2.0	0.9375	71.0	-25.0	0.0625	16.0	1.0	1.0	-24.86063485894084	3.147	0.0	stim	poldrack-single-stim	s639	False	1
324.089	1.5	323.338	n/a	-1.0	2.25	columbia_card_task_fmri	n/a	n/a	-1.0	n/a	n/a	n/a	n/a	n/a	n/a	n/a	n/a	ITI	poldrack-single-stim	s639	False	0
325.592	3.467	329.059	1.9131393253503075	draw_card	3.467	columbia_card_task_fmri	9.0	0.9375	89.0	-95.0	0.0625	16.0	1.0	1.0	-6.2413583233758665	3.467	n/a	stim	poldrack-single-stim	s639	False	1
329.062	0.689	329.751	1.4798059920169748	draw_card	0.689	columbia_card_task_fmri	9.0	0.9333333333333332	89.0	-95.0	0.0666666666666666	16.0	2.0	1.0	-5.473794555555831	0.689	n/a	stim	poldrack-single-stim	s639	False	1
329.754	0.808	330.562	0.9845678967788796	draw_card	0.808	columbia_card_task_fmri	9.0	0.9285714285714286	89.0	-95.0	0.0714285714285714	16.0	3.0	1.0	-4.632065829261027	0.808	n/a	stim	poldrack-single-stim	s639	False	1
330.565	0.512	331.077	0.4131393253503075	draw_card	0.512	columbia_card_task_fmri	9.0	0.9230769230769232	89.0	-95.0	0.0769230769230769	16.0	4.0	1.0	-3.7035634820997383	0.512	n/a	stim	poldrack-single-stim	s639	False	1
331.078	0.923	332.001	-0.2535273413163585	draw_card	0.923	columbia_card_task_fmri	9.0	0.9166666666666666	89.0	-95.0	0.0833333333333333	16.0	5.0	1.0	-2.6725177518070566	0.923	n/a	stim	poldrack-single-stim	s639	False	1
332.005	1.109	333.114	-1.0414061291951475	end_round	1.109	columbia_card_task_fmri	9.0	0.9090909090909092	71.0	-95.0	0.0909090909090909	16.0	6.0	1.0	-1.5189325206518731	1.109	5.0	stim	poldrack-single-stim	s639	False	1
333.868	1.5	333.117	n/a	-1.0	2.25	columbia_card_task_fmri	n/a	n/a	-1.0	n/a	n/a	n/a	n/a	n/a	n/a	n/a	n/a	ITI	poldrack-single-stim	s639	False	0
335.373	3.08	338.453	3.475639325350308	draw_card	3.08	columbia_card_task_fmri	11.0	0.9375	89.0	-100.0	0.0625	16.0	1.0	1.0	-4.54735932063117	3.08	n/a	stim	poldrack-single-stim	s639	False	1
338.456	0.434	338.89	3.0131393253503083	draw_card	0.434	columbia_card_task_fmri	11.0	0.9333333333333332	89.0	-100.0	0.0666666666666666	16.0	2.0	1.0	-3.72810623378135	0.434	2.0	stim	poldrack-single-stim	s639	False	0
339.644	1.5	338.893	n/a	-1.0	2.522	columbia_card_task_fmri	n/a	n/a	-1.0	n/a	n/a	n/a	n/a	n/a	n/a	n/a	n/a	ITI	poldrack-single-stim	s639	False	0
341.419	6.141	347.56	4.038139325350308	draw_card	6.141	columbia_card_task_fmri	16.0	0.875	89.0	-75.0	0.125	16.0	1.0	2.0	-1.3214470266136438	6.141	n/a	stim	poldrack-single-stim	s639	False	1
347.564	1.958	349.522	3.279805992016975	draw_card	1.958	columbia_card_task_fmri	16.0	0.8666666666666667	89.0	-75.0	0.1333333333333333	16.0	2.0	2.0	-0.4829715531663403	1.958	n/a	stim	poldrack-single-stim	s639	False	1
349.524	1.069	350.593	2.413139325350309	end_round	1.069	columbia_card_task_fmri	16.0	0.8571428571428572	71.0	-75.0	0.1428571428571428	16.0	3.0	2.0	0.4261844649828354	1.069	2.0	stim	poldrack-single-stim	s639	False	1
351.349	1.5	350.598	n/a	-1.0	2.454	columbia_card_task_fmri	n/a	n/a	-1.0	n/a	n/a	n/a	n/a	n/a	n/a	n/a	n/a	ITI	poldrack-single-stim	s639	False	0
353.056	3.597	356.653	4.288139325350308	draw_card	3.597	columbia_card_task_fmri	17.0	0.875	89.0	-80.0	0.125	16.0	1.0	2.0	0.6625126200636942	3.597	n/a	stim	poldrack-single-stim	s639	False	1
356.657	0.651	357.308	3.479805992016976	draw_card	0.651	columbia_card_task_fmri	17.0	0.8666666666666667	89.0	-80.0	0.1333333333333333	16.0	2.0	2.0	1.5562920033254173	0.651	n/a	stim	poldrack-single-stim	s639	False	1
357.312	1.753	359.065	2.5559964682074536	end_round	1.753	columbia_card_task_fmri	17.0	0.8571428571428572	71.0	-80.0	0.1428571428571428	16.0	3.0	2.0	2.525412678263187	1.753	2.0	stim	poldrack-single-stim	s639	False	1
359.82	1.5	359.069	n/a	-1.0	2.25	columbia_card_task_fmri	n/a	n/a	-1.0	n/a	n/a	n/a	n/a	n/a	n/a	n/a	n/a	ITI	poldrack-single-stim	s639	False	0
372.328	5.833	378.161	-1.4201940079830246	end_round	5.833	columbia_card_task_fmri	13.0	0.8333333333333334	71.0	-70.0	0.1666666666666666	6.0	1.0	1.0	-0.4847492603167502	5.833	0.0	stim	poldrack-single-stim	s639	False	1
378.915	1.5	378.164	n/a	-1.0	2.454	columbia_card_task_fmri	n/a	n/a	-1.0	n/a	n/a	n/a	n/a	n/a	n/a	n/a	n/a	ITI	poldrack-single-stim	s639	False	0
380.623	1.554	382.177	-1.4201940079830246	end_round	1.554	columbia_card_task_fmri	15.0	0.8333333333333334	71.0	-80.0	0.1666666666666666	6.0	1.0	1.0	3.986683650247606	1.554	0.0	stim	poldrack-single-stim	s639	False	1
382.931	1.5	382.18	n/a	-1.0	2.454	columbia_card_task_fmri	n/a	n/a	-1.0	n/a	n/a	n/a	n/a	n/a	n/a	n/a	n/a	ITI	poldrack-single-stim	s639	False	0
384.638	3.321	387.959	0.2464726586836414	end_round	3.321	columbia_card_task_fmri	16.0	0.8333333333333334	71.0	-75.0	0.1666666666666666	6.0	1.0	1.0	2.496185416067391	3.321	0.0	stim	poldrack-single-stim	s639	False	1
388.714	1.5	387.963	n/a	-1.0	2.522	columbia_card_task_fmri	n/a	n/a	-1.0	n/a	n/a	n/a	n/a	n/a	n/a	n/a	n/a	ITI	poldrack-single-stim	s639	False	0
390.489	4.313	394.802	1.4131393253503075	draw_card	4.313	columbia_card_task_fmri	21.0	0.75	89.0	-55.0	0.25	8.0	1.0	2.0	1.4916080899912885	4.313	n/a	stim	poldrack-single-stim	s639	False	1
394.806	1.092	395.898	-1.301146388935406	end_round	1.092	columbia_card_task_fmri	21.0	0.7142857142857143	71.0	-55.0	0.2857142857142857	8.0	2.0	2.0	2.915726024945279	1.092	1.0	stim	poldrack-single-stim	s639	False	1
396.653	1.5	395.902	n/a	-1.0	2.454	columbia_card_task_fmri	n/a	n/a	-1.0	n/a	n/a	n/a	n/a	n/a	n/a	n/a	n/a	ITI	poldrack-single-stim	s639	False	0
398.361	6.286	404.647	2.663139325350308	end_round	6.286	columbia_card_task_fmri	26.0	0.75	71.0	-65.0	0.25	8.0	1.0	2.0	7.985936259128664	6.286	0.0	stim	poldrack-single-stim	s639	False	1
405.402	1.5	404.651	n/a	-1.0	2.658	columbia_card_task_fmri	n/a	n/a	-1.0	n/a	n/a	n/a	n/a	n/a	n/a	n/a	n/a	ITI	poldrack-single-stim	s639	False	0
407.314	1.62	408.934	-2.2535273413163583	end_round	1.62	columbia_card_task_fmri	15.0	0.7777777777777778	71.0	-60.0	0.2222222222222222	9.0	1.0	2.0	-0.2365890295277566	1.62	0.0	stim	poldrack-single-stim	s639	False	1
409.689	1.5	408.938	n/a	-1.0	2.386	columbia_card_task_fmri	n/a	n/a	-1.0	n/a	n/a	n/a	n/a	n/a	n/a	n/a	n/a	ITI	poldrack-single-stim	s639	False	0
411.329	0.951	412.28	2.113139325350309	end_round	0.951	columbia_card_task_fmri	13.0	0.9	71.0	-90.0	0.1	10.0	1.0	1.0	-0.5170171360553582	0.951	0.0	stim	poldrack-single-stim	s639	False	1
413.034	1.5	412.283	n/a	-1.0	2.522	columbia_card_task_fmri	n/a	n/a	-1.0	n/a	n/a	n/a	n/a	n/a	n/a	n/a	n/a	ITI	poldrack-single-stim	s639	False	0
414.811	3.325	418.136	3.413139325350308	draw_card	3.325	columbia_card_task_fmri	15.0	0.9	89.0	-95.0	0.1	10.0	1.0	1.0	1.5826283145545617	3.325	n/a	stim	poldrack-single-stim	s639	False	1
418.137	0.931	419.068	2.1909171031280845	end_round	0.931	columbia_card_task_fmri	15.0	0.8888888888888888	71.0	-95.0	0.1111111111111111	10.0	2.0	1.0	3.15205628653014	0.931	1.0	stim	poldrack-single-stim	s639	False	1
419.824	1.5	419.073	n/a	-1.0	2.59	columbia_card_task_fmri	n/a	n/a	-1.0	n/a	n/a	n/a	n/a	n/a	n/a	n/a	n/a	ITI	poldrack-single-stim	s639	False	0
421.668	5.268	426.936	-0.7868606746496918	end_round	5.268	columbia_card_task_fmri	16.0	0.8	71.0	-65.0	0.2	10.0	1.0	2.0	0.9827249257388572	5.268	0.0	stim	poldrack-single-stim	s639	False	1
427.69	1.5	426.939	n/a	-1.0	2.386	columbia_card_task_fmri	n/a	n/a	-1.0	n/a	n/a	n/a	n/a	n/a	n/a	n/a	n/a	ITI	poldrack-single-stim	s639	False	0
429.33	2.356	431.686	-2.0868606746496923	draw_card	2.356	columbia_card_task_fmri	7.0	0.9166666666666666	89.0	-95.0	0.0833333333333333	12.0	1.0	1.0	-3.2251711191393326	2.356	n/a	stim	poldrack-single-stim	s639	False	1
431.689	1.628	433.317	-2.8595879473769656	draw_card	1.628	columbia_card_task_fmri	7.0	0.9090909090909092	89.0	-95.0	0.0909090909090909	12.0	2.0	1.0	-2.0937791933306578	1.628	n/a	stim	poldrack-single-stim	s639	False	1
433.321	0.721	434.042	-3.786860674649693	end_round	0.721	columbia_card_task_fmri	7.0	0.9	71.0	-95.0	0.1	12.0	3.0	1.0	-0.8169625146657076	0.721	2.0	stim	poldrack-single-stim	s639	False	1
434.795	1.5	434.044	n/a	-1.0	2.59	columbia_card_task_fmri	n/a	n/a	-1.0	n/a	n/a	n/a	n/a	n/a	n/a	n/a	n/a	ITI	poldrack-single-stim	s639	False	0
436.639	3.443	440.082	-1.4201940079830246	draw_card	3.443	columbia_card_task_fmri	14.0	0.8333333333333334	89.0	-75.0	0.1666666666666666	12.0	1.0	2.0	1.7509435024178543	3.443	n/a	stim	poldrack-single-stim	s639	False	1
440.084	2.515	442.599	-2.768678856467876	draw_card	2.515	columbia_card_task_fmri	14.0	0.8181818181818181	89.0	-75.0	0.1818181818181818	12.0	2.0	2.0	2.909246766059198	2.515	n/a	stim	poldrack-single-stim	s639	False	1
442.602	2.266	444.868	-4.386860674649691	draw_card	2.266	columbia_card_task_fmri	14.0	0.8	89.0	-75.0	0.2	12.0	3.0	2.0	4.18224728929053	2.266	n/a	stim	poldrack-single-stim	s639	False	1
444.87	0.953	445.823	-6.364638452427467	end_round	0.953	columbia_card_task_fmri	14.0	0.7777777777777778	71.0	-75.0	0.2222222222222222	12.0	4.0	2.0	5.5828983508912415	0.953	3.0	stim	poldrack-single-stim	s639	False	1
446.578	1.5	445.827	n/a	-1.0	2.318	columbia_card_task_fmri	n/a	n/a	-1.0	n/a	n/a	n/a	n/a	n/a	n/a	n/a	n/a	ITI	poldrack-single-stim	s639	False	0
448.149	2.21	450.359	0.2464726586836414	draw_card	2.21	columbia_card_task_fmri	15.0	0.8333333333333334	89.0	-70.0	0.1666666666666666	12.0	1.0	2.0	0.260475776377028	2.21	n/a	stim	poldrack-single-stim	s639	False	1
450.363	1.632	451.995	-1.0414061291951493	draw_card	1.632	columbia_card_task_fmri	15.0	0.8181818181818181	89.0	-70.0	0.1818181818181818	12.0	2.0	2.0	1.3667043538186547	1.632	n/a	stim	poldrack-single-stim	s639	False	1
451.999	0.932	452.931	-2.5868606746496923	end_round	0.932	columbia_card_task_fmri	15.0	0.8	71.0	-70.0	0.2	12.0	3.0	2.0	2.582474871524255	0.932	2.0	stim	poldrack-single-stim	s639	False	1
453.686	1.5	452.935	n/a	-1.0	2.25	columbia_card_task_fmri	n/a	n/a	-1.0	n/a	n/a	n/a	n/a	n/a	n/a	n/a	n/a	ITI	poldrack-single-stim	s639	False	0
455.19	2.976	458.166	-1.7868606746496918	draw_card	2.976	columbia_card_task_fmri	16.0	0.8	89.0	-70.0	0.2	15.0	1.0	3.0	2.98241599166699	2.976	n/a	stim	poldrack-single-stim	s639	False	1
458.169	1.446	459.615	-3.015432103221121	end_round	1.446	columbia_card_task_fmri	16.0	0.7857142857142857	71.0	-70.0	0.2142857142857142	15.0	2.0	3.0	3.870317730412445	1.446	1.0	stim	poldrack-single-stim	s639	False	1
460.371	1.5	459.62	n/a	-1.0	2.454	columbia_card_task_fmri	n/a	n/a	-1.0	n/a	n/a	n/a	n/a	n/a	n/a	n/a	n/a	ITI	poldrack-single-stim	s639	False	0
462.08	2.33	464.41	-1.3993606746496925	draw_card	2.33	columbia_card_task_fmri	14.0	0.8125	89.0	-65.0	0.1875	16.0	1.0	3.0	-0.582327716125711	2.33	n/a	stim	poldrack-single-stim	s639	False	1
464.414	1.265	465.679	-2.386860674649691	end_round	1.265	columbia_card_task_fmri	14.0	0.8	71.0	-65.0	0.2	16.0	2.0	3.0	0.1828594461982327	1.265	1.0	stim	poldrack-single-stim	s639	False	1
466.433	1.5	465.682	n/a	-1.0	3.27	columbia_card_task_fmri	n/a	n/a	-1.0	n/a	n/a	n/a	n/a	n/a	n/a	n/a	n/a	ITI	poldrack-single-stim	s639	False	0
468.958	1.63	470.588	-1.6493606746496925	draw_card	1.63	columbia_card_task_fmri	16.0	0.8125	89.0	-75.0	0.1875	16.0	1.0	3.0	4.100684512231879	1.63	n/a	stim	poldrack-single-stim	s639	False	1
470.59	0.617	471.207	-2.786860674649692	draw_card	0.617	columbia_card_task_fmri	16.0	0.8	89.0	-75.0	0.2	16.0	2.0	3.0	4.982140999377002	0.617	2.0	stim	poldrack-single-stim	s639	False	0
471.963	1.5	471.212	n/a	-1.0	2.25	columbia_card_task_fmri	n/a	n/a	-1.0	n/a	n/a	n/a	n/a	n/a	n/a	n/a	n/a	ITI	poldrack-single-stim	s639	False	0
473.466	6.346	479.812	2.613139325350309	draw_card	6.346	columbia_card_task_fmri	16.0	0.8666666666666667	89.0	-80.0	0.1333333333333333	15.0	1.0	2.0	1.2164117563733896	6.346	n/a	stim	poldrack-single-stim	s639	False	1
479.816	0.807	480.623	1.6988536110645958	draw_card	0.807	columbia_card_task_fmri	16.0	0.8571428571428572	89.0	-80.0	0.1428571428571428	15.0	2.0	2.0	2.1755384070764734	0.807	n/a	stim	poldrack-single-stim	s639	False	1
480.627	0.606	481.233	0.6439085561195375	end_round	0.606	columbia_card_task_fmri	16.0	0.8461538461538461	71.0	-80.0	0.1538461538461538	15.0	3.0	2.0	3.2192981390317854	0.606	2.0	stim	poldrack-single-stim	s639	False	1
481.987	1.5	481.236	n/a	-1.0	2.25	columbia_card_task_fmri	n/a	n/a	-1.0	n/a	n/a	n/a	n/a	n/a	n/a	n/a	n/a	ITI	poldrack-single-stim	s639	False	0
483.49	3.064	486.554	3.479805992016976	draw_card	3.064	columbia_card_task_fmri	17.0	0.8666666666666667	89.0	-80.0	0.1333333333333333	15.0	1.0	2.0	1.5562920033254173	3.064	n/a	stim	poldrack-single-stim	s639	False	1
486.558	0.671	487.229	2.5559964682074536	end_round	0.671	columbia_card_task_fmri	17.0	0.8571428571428572	71.0	-80.0	0.1428571428571428	15.0	2.0	2.0	2.525412678263187	0.671	1.0	stim	poldrack-single-stim	s639	False	1
487.984	1.5	487.233	n/a	-1.0	2.318	columbia_card_task_fmri	n/a	n/a	-1.0	n/a	n/a	n/a	n/a	n/a	n/a	n/a	n/a	ITI	poldrack-single-stim	s639	False	0
489.557	2.152	491.709	-0.5868606746496925	draw_card	2.152	columbia_card_task_fmri	1.0	0.9375	89.0	-15.0	0.0625	16.0	1.0	1.0	-27.505395969056813	2.152	n/a	stim	poldrack-single-stim	s639	False	1
491.713	1.584	493.297	-0.6535273413163591	draw_card	1.584	columbia_card_task_fmri	1.0	0.9333333333333332	89.0	-15.0	0.0666666666666666	16.0	2.0	1.0	-27.38857239058832	1.584	n/a	stim	poldrack-single-stim	s639	False	1
493.301	0.659	493.96	-0.7297178175068353	draw_card	0.659	columbia_card_task_fmri	1.0	0.9285714285714286	89.0	-15.0	0.0714285714285714	16.0	3.0	1.0	-27.260378912187704	0.659	n/a	stim	poldrack-single-stim	s639	False	1
493.964	1.155	495.119	-0.8176299054189233	draw_card	1.155	columbia_card_task_fmri	1.0	0.9230769230769232	89.0	-15.0	0.0769230769230769	16.0	4.0	1.0	-27.11887948155168	1.155	n/a	stim	poldrack-single-stim	s639	False	1
495.123	0.9	496.023	-0.920194007983026	draw_card	0.9	columbia_card_task_fmri	1.0	0.9166666666666666	89.0	-15.0	0.0833333333333333	16.0	5.0	1.0	-26.96165230319877	0.9	n/a	stim	poldrack-single-stim	s639	False	1
496.027	3.033	499.06	-1.0414061291951473	end_round	3.033	columbia_card_task_fmri	1.0	0.9090909090909092	71.0	-15.0	0.0909090909090909	16.0	6.0	1.0	-26.785626064896185	3.033	5.0	stim	poldrack-single-stim	s639	False	1
499.814	1.5	499.063	n/a	-1.0	2.726	columbia_card_task_fmri	n/a	n/a	-1.0	n/a	n/a	n/a	n/a	n/a	n/a	n/a	n/a	ITI	poldrack-single-stim	s639	False	0
501.795	4.977	506.772	2.538139325350308	draw_card	4.977	columbia_card_task_fmri	10.0	0.9375	89.0	-100.0	0.0625	16.0	1.0	1.0	-4.789362537010081	4.977	n/a	stim	poldrack-single-stim	s639	False	1
506.776	2.463	509.239	2.0798059920169747	draw_card	2.463	columbia_card_task_fmri	10.0	0.9333333333333332	89.0	-100.0	0.0666666666666666	16.0	2.0	1.0	-3.977493539330066	2.463	2.0	stim	poldrack-single-stim	s639	False	0
509.994	1.5	509.243	n/a	-1.0	2.386	columbia_card_task_fmri	n/a	n/a	-1.0	n/a	n/a	n/a	n/a	n/a	n/a	n/a	n/a	ITI	poldrack-single-stim	s639	False	0
511.635	5.349	516.984	3.163139325350308	draw_card	5.349	columbia_card_task_fmri	15.0	0.875	89.0	-75.0	0.125	16.0	1.0	2.0	-1.6521023822553218	5.349	n/a	stim	poldrack-single-stim	s639	False	1
516.988	0.564	517.552	2.413139325350308	end_round	0.564	columbia_card_task_fmri	15.0	0.8666666666666667	71.0	-75.0	0.1333333333333333	16.0	2.0	2.0	-0.8228443512922752	0.564	1.0	stim	poldrack-single-stim	s639	False	1
518.308	1.5	517.557	n/a	-1.0	2.318	columbia_card_task_fmri	n/a	n/a	-1.0	n/a	n/a	n/a	n/a	n/a	n/a	n/a	n/a	ITI	poldrack-single-stim	s639	False	0
519.881	1.48	521.361	3.413139325350308	draw_card	1.48	columbia_card_task_fmri	16.0	0.875	89.0	-80.0	0.125	16.0	1.0	2.0	0.3318496082509021	1.48	n/a	stim	poldrack-single-stim	s639	False	1
521.364	0.485	521.849	2.613139325350309	end_round	0.485	columbia_card_task_fmri	16.0	0.8666666666666667	71.0	-80.0	0.1333333333333333	16.0	2.0	2.0	1.2164117563733896	0.485	1.0	stim	poldrack-single-stim	s639	False	1
522.604	1.5	521.853	n/a	-1.0	2.25	columbia_card_task_fmri	n/a	n/a	-1.0	n/a	n/a	n/a	n/a	n/a	n/a	n/a	n/a	ITI	poldrack-single-stim	s639	False	0
524.109	4.841	528.95	0.6006393253503075	draw_card	4.841	columbia_card_task_fmri	4.0	0.6875	89.0	-5.0	0.3125	16.0	1.0	5.0	-27.209900467233435	4.841	1.0	stim	poldrack-single-stim	s639	False	0
529.706	1.5	528.955	n/a	-1.0	2.25	columbia_card_task_fmri	n/a	n/a	-1.0	n/a	n/a	n/a	n/a	n/a	n/a	n/a	n/a	ITI	poldrack-single-stim	s639	False	0
531.211	5.124	536.335	-2.253527341316357	end_round	5.124	columbia_card_task_fmri	14.0	0.8333333333333334	71.0	-80.0	0.1666666666666666	6.0	1.0	1.0	3.614057386605438	5.124	0.0	stim	poldrack-single-stim	s639	False	1
537.089	1.5	536.338	n/a	-1.0	2.454	columbia_card_task_fmri	n/a	n/a	-1.0	n/a	n/a	n/a	n/a	n/a	n/a	n/a	n/a	ITI	poldrack-single-stim	s639	False	0
538.797	2.86	541.657	-0.5868606746496925	end_round	2.86	columbia_card_task_fmri	15.0	0.8333333333333334	71.0	-75.0	0.1666666666666666	6.0	1.0	1.0	2.123563825616713	2.86	0.0	stim	poldrack-single-stim	s639	False	1
542.413	1.5	541.662	n/a	-1.0	2.454	columbia_card_task_fmri	n/a	n/a	-1.0	n/a	n/a	n/a	n/a	n/a	n/a	n/a	n/a	ITI	poldrack-single-stim	s639	False	0
544.122	1.259	545.381	1.0798059920169754	end_round	1.259	columbia_card_task_fmri	16.0	0.8333333333333334	71.0	-70.0	0.1666666666666666	6.0	1.0	1.0	0.6330905782534657	1.259	0.0	stim	poldrack-single-stim	s639	False	1
546.136	1.5	545.385	n/a	-1.0	2.522	columbia_card_task_fmri	n/a	n/a	-1.0	n/a	n/a	n/a	n/a	n/a	n/a	n/a	n/a	ITI	poldrack-single-stim	s639	False	0
547.912	6.237	554.149	1.6631393253503075	draw_card	6.237	columbia_card_task_fmri	23.0	0.75	89.0	-60.0	0.25	8.0	1.0	2.0	4.522255787838148	6.237	n/a	stim	poldrack-single-stim	s639	False	1
554.153	1.072	555.225	-1.3011463889354042	end_round	1.072	columbia_card_task_fmri	23.0	0.7142857142857143	71.0	-60.0	0.2857142857142857	8.0	2.0	2.0	6.077580766245283	1.072	1.0	stim	poldrack-single-stim	s639	False	1
555.981	1.5	555.23	n/a	-1.0	2.386	columbia_card_task_fmri	n/a	n/a	-1.0	n/a	n/a	n/a	n/a	n/a	n/a	n/a	n/a	ITI	poldrack-single-stim	s639	False	0
557.622	1.763	559.385	2.163139325350308	draw_card	1.763	columbia_card_task_fmri	27.0	0.75	89.0	-70.0	0.25	8.0	1.0	2.0	10.583742193137276	1.763	n/a	stim	poldrack-single-stim	s639	False	1
559.388	2.208	561.596	-1.3011463889354078	draw_card	2.208	columbia_card_task_fmri	27.0	0.7142857142857143	89.0	-70.0	0.2857142857142857	8.0	2.0	2.0	12.401473340073949	2.208	n/a	stim	poldrack-single-stim	s639	False	1
561.599	1.003	562.602	-5.920194007983021	end_round	1.003	columbia_card_task_fmri	27.0	0.6666666666666667	71.0	-70.0	0.3333333333333333	8.0	3.0	2.0	14.307414774268617	1.003	2.0	stim	poldrack-single-stim	s639	False	1
563.358	1.5	562.607	n/a	-1.0	2.454	columbia_card_task_fmri	n/a	n/a	-1.0	n/a	n/a	n/a	n/a	n/a	n/a	n/a	n/a	ITI	poldrack-single-stim	s639	False	0
565.067	2.219	567.286	-2.5868606746496905	end_round	2.219	columbia_card_task_fmri	16.0	0.7777777777777778	71.0	-65.0	0.2222222222222222	9.0	1.0	2.0	2.257440234781797	2.219	0.0	stim	poldrack-single-stim	s639	False	1
568.04	1.5	567.289	n/a	-1.0	2.522	columbia_card_task_fmri	n/a	n/a	-1.0	n/a	n/a	n/a	n/a	n/a	n/a	n/a	n/a	ITI	poldrack-single-stim	s639	False	0
569.818	1.089	570.907	2.613139325350309	end_round	1.089	columbia_card_task_fmri	13.0	0.9	71.0	-85.0	0.1	10.0	1.0	1.0	-2.01673288511736	1.089	0.0	stim	poldrack-single-stim	s639	False	1
571.662	1.5	570.911	n/a	-1.0	2.522	columbia_card_task_fmri	n/a	n/a	-1.0	n/a	n/a	n/a	n/a	n/a	n/a	n/a	n/a	ITI	poldrack-single-stim	s639	False	0
573.439	2.002	575.441	-2.386860674649691	end_round	2.002	columbia_card_task_fmri	14.0	0.8	71.0	-65.0	0.2	10.0	1.0	2.0	0.1828594461982327	2.002	0.0	stim	poldrack-single-stim	s639	False	1
576.197	1.5	575.446	n/a	-1.0	2.59	columbia_card_task_fmri	n/a	n/a	-1.0	n/a	n/a	n/a	n/a	n/a	n/a	n/a	n/a	ITI	poldrack-single-stim	s639	False	0
578.042	1.649	579.691	-0.9868606746496912	draw_card	1.649	columbia_card_task_fmri	17.0	0.8	89.0	-70.0	0.2	10.0	1.0	2.0	3.382358465077644	1.649	n/a	stim	poldrack-single-stim	s639	False	1
579.695	1.112	580.807	-2.9201940079830244	end_round	1.112	columbia_card_task_fmri	17.0	0.7777777777777778	71.0	-70.0	0.2222222222222222	10.0	2.0	2.0	4.751525899988948	1.112	1.0	stim	poldrack-single-stim	s639	False	1
581.563	1.5	580.812	n/a	-1.0	2.454	columbia_card_task_fmri	n/a	n/a	-1.0	n/a	n/a	n/a	n/a	n/a	n/a	n/a	n/a	ITI	poldrack-single-stim	s639	False	0
583.271	3.832	587.103	-2.2535273413163583	draw_card	3.832	columbia_card_task_fmri	13.0	0.8333333333333334	89.0	-75.0	0.1666666666666666	12.0	1.0	2.0	1.378324489658972	3.832	n/a	stim	poldrack-single-stim	s639	False	1
587.107	0.604	587.711	-3.586860674649694	draw_card	0.604	columbia_card_task_fmri	13.0	0.8181818181818181	89.0	-75.0	0.1818181818181818	12.0	2.0	2.0	2.523609151924269	0.604	n/a	stim	poldrack-single-stim	s639	False	1
587.715	1.075	588.79	-5.186860674649692	end_round	1.075	columbia_card_task_fmri	13.0	0.8	71.0	-75.0	0.2	12.0	3.0	2.0	3.782302245635144	1.075	2.0	stim	poldrack-single-stim	s639	False	1
589.546	1.5	588.795	n/a	-1.0	2.318	columbia_card_task_fmri	n/a	n/a	-1.0	n/a	n/a	n/a	n/a	n/a	n/a	n/a	n/a	ITI	poldrack-single-stim	s639	False	0
591.119	1.952	593.071	-0.5868606746496907	draw_card	1.952	columbia_card_task_fmri	14.0	0.8333333333333334	89.0	-70.0	0.1666666666666666	12.0	1.0	2.0	-0.1121375212632962	1.952	n/a	stim	poldrack-single-stim	s639	False	1
593.075	2.273	595.348	-1.859587947376968	end_round	2.273	columbia_card_task_fmri	14.0	0.8181818181818181	71.0	-70.0	0.1818181818181818	12.0	2.0	2.0	0.9810722621080856	2.273	1.0	stim	poldrack-single-stim	s639	False	1
596.103	1.5	595.352	n/a	-1.0	2.25	columbia_card_task_fmri	n/a	n/a	-1.0	n/a	n/a	n/a	n/a	n/a	n/a	n/a	n/a	ITI	poldrack-single-stim	s639	False	0
597.608	1.663	599.271	-0.5868606746496907	draw_card	1.663	columbia_card_task_fmri	16.0	0.8333333333333334	89.0	-80.0	0.1666666666666666	12.0	1.0	2.0	4.359310991432693	1.663	1.0	stim	poldrack-single-stim	s639	False	0
600.027	1.5	599.276	n/a	-1.0	2.658	columbia_card_task_fmri	n/a	n/a	-1.0	n/a	n/a	n/a	n/a	n/a	n/a	n/a	n/a	ITI	poldrack-single-stim	s639	False	0
601.94	2.604	604.544	-0.7868606746496918	draw_card	2.604	columbia_card_task_fmri	16.0	0.8	89.0	-65.0	0.2	15.0	1.0	3.0	0.9827249257388572	2.604	n/a	stim	poldrack-single-stim	s639	False	1
604.547	3.225	607.772	-1.9440035317925484	end_round	3.225	columbia_card_task_fmri	16.0	0.7857142857142857	71.0	-65.0	0.2142857142857142	15.0	2.0	3.0	1.8189893769703505	3.225	1.0	stim	poldrack-single-stim	s639	False	1
608.528	1.5	607.777	n/a	-1.0	2.454	columbia_card_task_fmri	n/a	n/a	-1.0	n/a	n/a	n/a	n/a	n/a	n/a	n/a	n/a	ITI	poldrack-single-stim	s639	False	0
610.236	1.891	612.127	-2.4618606746496923	draw_card	1.891	columbia_card_task_fmri	15.0	0.8125	89.0	-75.0	0.1875	16.0	1.0	3.0	3.710425995787688	1.891	n/a	stim	poldrack-single-stim	s639	False	1
612.13	0.612	612.742	-3.5868606746496923	end_round	0.612	columbia_card_task_fmri	15.0	0.8	71.0	-75.0	0.2	16.0	2.0	3.0	4.582193553951917	0.612	1.0	stim	poldrack-single-stim	s639	False	1
613.498	1.5	612.747	n/a	-1.0	2.386	columbia_card_task_fmri	n/a	n/a	-1.0	n/a	n/a	n/a	n/a	n/a	n/a	n/a	n/a	ITI	poldrack-single-stim	s639	False	0
615.139	4.665	619.804	-1.8993606746496925	end_round	4.665	columbia_card_task_fmri	14.0	0.6875	71.0	-35.0	0.3125	16.0	1.0	5.0	-8.702900956702418	4.665	0.0	stim	poldrack-single-stim	s639	False	1
620.559	1.5	619.808	n/a	-1.0	2.59	columbia_card_task_fmri	n/a	n/a	-1.0	n/a	n/a	n/a	n/a	n/a	n/a	n/a	n/a	ITI	poldrack-single-stim	s639	False	0
622.404	2.241	624.645	3.279805992016975	draw_card	2.241	columbia_card_task_fmri	16.0	0.8666666666666667	89.0	-75.0	0.1333333333333333	15.0	1.0	2.0	-0.4829715531663403	2.241	n/a	stim	poldrack-single-stim	s639	False	1
624.649	0.794	625.443	2.413139325350309	draw_card	0.794	columbia_card_task_fmri	16.0	0.8571428571428572	89.0	-75.0	0.1428571428571428	15.0	2.0	2.0	0.4261844649828354	0.794	n/a	stim	poldrack-single-stim	s639	False	1
625.447	1.533	626.98	1.4131393253503075	draw_card	1.533	columbia_card_task_fmri	16.0	0.8461538461538461	89.0	-75.0	0.1538461538461538	15.0	3.0	2.0	1.4155651832136795	1.533	n/a	stim	poldrack-single-stim	s639	False	1
626.984	2.196	629.18	0.2464726586836414	draw_card	2.196	columbia_card_task_fmri	16.0	0.8333333333333334	89.0	-75.0	0.1666666666666666	15.0	4.0	2.0	2.496185416067391	2.196	n/a	stim	poldrack-single-stim	s639	False	1
629.185	1.209	630.394	-1.1323152201042392	end_round	1.209	columbia_card_task_fmri	16.0	0.8181818181818181	71.0	-75.0	0.1818181818181818	15.0	5.0	2.0	3.680525751358424	1.209	4.0	stim	poldrack-single-stim	s639	False	1
631.15	1.5	630.399	n/a	-1.0	2.318	columbia_card_task_fmri	n/a	n/a	-1.0	n/a	n/a	n/a	n/a	n/a	n/a	n/a	n/a	ITI	poldrack-single-stim	s639	False	0
632.723	3.099	635.822	3.946472658683641	draw_card	3.099	columbia_card_task_fmri	16.0	0.8666666666666667	89.0	-70.0	0.1333333333333333	15.0	1.0	2.0	-2.1823211675052647	3.099	1.0	stim	poldrack-single-stim	s639	False	0
636.578	1.5	635.827	n/a	-1.0	2.59	columbia_card_task_fmri	n/a	n/a	-1.0	n/a	n/a	n/a	n/a	n/a	n/a	n/a	n/a	ITI	poldrack-single-stim	s639	False	0
638.423	1.351	639.774	1.2881393253503075	end_round	1.351	columbia_card_task_fmri	8.0	0.9375	71.0	-90.0	0.0625	16.0	1.0	1.0	-7.693308459921312	1.351	0.0	stim	poldrack-single-stim	s639	False	1
640.53	1.5	639.779	n/a	-1.0	2.386	columbia_card_task_fmri	n/a	n/a	-1.0	n/a	n/a	n/a	n/a	n/a	n/a	n/a	n/a	ITI	poldrack-single-stim	s639	False	0
642.17	1.576	643.746	2.850639325350308	end_round	1.576	columbia_card_task_fmri	10.0	0.9375	71.0	-95.0	0.0625	16.0	1.0	1.0	-5.999361984546503	1.576	0.0	stim	poldrack-single-stim	s639	False	1
644.502	1.5	643.751	n/a	-1.0	2.318	columbia_card_task_fmri	n/a	n/a	-1.0	n/a	n/a	n/a	n/a	n/a	n/a	n/a	n/a	ITI	poldrack-single-stim	s639	False	0
646.073	1.437	647.51	3.788139325350308	end_round	1.437	columbia_card_task_fmri	15.0	0.875	71.0	-70.0	0.125	16.0	1.0	2.0	-3.3053567351760726	1.437	0.0	stim	poldrack-single-stim	s639	False	1
648.267	1.5	647.516	n/a	-1.0	2.318	columbia_card_task_fmri	n/a	n/a	-1.0	n/a	n/a	n/a	n/a	n/a	n/a	n/a	n/a	ITI	poldrack-single-stim	s639	False	0
649.84	2.557	652.397	2.788139325350308	draw_card	2.557	columbia_card_task_fmri	16.0	0.875	89.0	-85.0	0.125	16.0	1.0	2.0	1.985175734390076	2.557	n/a	stim	poldrack-single-stim	s639	False	1
652.402	1.56	653.962	1.9464726586836407	draw_card	1.56	columbia_card_task_fmri	16.0	0.8666666666666667	89.0	-85.0	0.1333333333333333	16.0	2.0	2.0	2.915823758460732	1.56	n/a	stim	poldrack-single-stim	s639	False	1
653.966	1.133	655.099	0.9845678967788803	draw_card	1.133	columbia_card_task_fmri	16.0	0.8571428571428572	89.0	-85.0	0.1428571428571428	16.0	3.0	2.0	3.924920223141228	1.133	n/a	stim	poldrack-single-stim	s639	False	1
655.104	0.591	655.695	-0.1253222131112326	end_round	0.591	columbia_card_task_fmri	16.0	0.8461538461538461	71.0	-85.0	0.1538461538461538	16.0	4.0	2.0	5.023058129471217	0.591	3.0	stim	poldrack-single-stim	s639	False	1
656.45	1.5	655.699	n/a	-1.0	2.318	columbia_card_task_fmri	n/a	n/a	-1.0	n/a	n/a	n/a	n/a	n/a	n/a	n/a	n/a	ITI	poldrack-single-stim	s639	False	0
