onset	duration	movement_onset	CTI	block_duration	correct	correct_response	cue	cue_switch	experiment_exp_id	key_press	response_time	stim_color	stim_number	switch_type	task	task_switch	trial_id	trial_type	worker_id	first_trial_of_block	junk
3.615	1.0	4.352	0.1	2.136	True	71.0	Color	n/a	twobytwo	71.0	0.637	orange	6.0	task_switch	color	switch	stim	poldrack-single-stim	s639	1	False
5.857	1.0	6.684	0.1	2.68	True	71.0	Color	stay	twobytwo	71.0	0.727	orange	8.0	cue_stay	color	stay	stim	poldrack-single-stim	s639	0	False
8.641	1.0	9.803	0.1	2.544	True	71.0	Orange-Blue	switch	twobytwo	71.0	1.062	orange	6.0	cue_switch	color	stay	stim	poldrack-single-stim	s639	0	False
11.292	1.0	12.099	0.1	2.272	True	89.0	Color	switch	twobytwo	89.0	0.707	blue	8.0	cue_switch	color	stay	stim	poldrack-single-stim	s639	0	False
14.469	1.0	15.776	0.9	2.272	True	71.0	Orange-Blue	switch	twobytwo	71.0	0.407	orange	7.0	cue_switch	color	stay	stim	poldrack-single-stim	s639	0	False
16.846	1.0	17.683	0.1	2.408	False	89.0	High-Low	n/a	twobytwo	71.0	0.737	orange	2.0	task_switch	magnitude	switch	stim	poldrack-single-stim	s639	0	False
19.359	1.0	20.403	0.1	2.136	True	89.0	High-Low	stay	twobytwo	89.0	0.944	orange	4.0	cue_stay	magnitude	stay	stim	poldrack-single-stim	s639	0	False
22.4	1.0	23.632	0.9	2.272	True	89.0	Color	n/a	twobytwo	89.0	0.332	blue	7.0	task_switch	color	switch	stim	poldrack-single-stim	s639	0	False
25.578	1.0	26.846	0.9	2.0	True	89.0	Orange-Blue	switch	twobytwo	89.0	0.368	blue	4.0	cue_switch	color	stay	stim	poldrack-single-stim	s639	0	False
27.682	1.0	28.46	0.1	2.136	True	89.0	Color	switch	twobytwo	89.0	0.678	blue	7.0	cue_switch	color	stay	stim	poldrack-single-stim	s639	0	False
29.922	1.0	30.649	0.1	2.272	True	71.0	Color	stay	twobytwo	71.0	0.627	orange	3.0	cue_stay	color	stay	stim	poldrack-single-stim	s639	0	False
32.299	1.0	33.017	0.1	2.0	True	71.0	High-Low	n/a	twobytwo	71.0	0.618	blue	7.0	task_switch	magnitude	switch	stim	poldrack-single-stim	s639	0	False
34.404	1.0	35.151	0.1	2.68	False	71.0	Color	n/a	twobytwo	89.0	0.647	orange	4.0	task_switch	color	switch	stim	poldrack-single-stim	s639	0	False
37.19	1.0	38.186	0.1	2.0	True	89.0	Orange-Blue	switch	twobytwo	89.0	0.896	blue	6.0	cue_switch	color	stay	stim	poldrack-single-stim	s639	0	False
40.096	1.0	41.912	0.9	2.0	True	89.0	Magnitude	n/a	twobytwo	89.0	0.916	blue	4.0	task_switch	magnitude	switch	stim	poldrack-single-stim	s639	0	False
43.001	1.0	44.467	0.9	2.0	True	89.0	Magnitude	stay	twobytwo	89.0	0.566	orange	4.0	cue_stay	magnitude	stay	stim	poldrack-single-stim	s639	0	False
45.906	1.0	47.37	0.9	2.272	True	89.0	Color	n/a	twobytwo	89.0	0.564	blue	6.0	task_switch	color	switch	stim	poldrack-single-stim	s639	0	False
49.084	1.0	50.439	0.9	2.0	True	89.0	Magnitude	n/a	twobytwo	89.0	0.455	orange	4.0	task_switch	magnitude	switch	stim	poldrack-single-stim	s639	0	False
51.989	1.0	53.485	0.9	2.0	True	89.0	Color	n/a	twobytwo	89.0	0.596	blue	1.0	task_switch	color	switch	stim	poldrack-single-stim	s639	0	False
54.094	1.0	55.203	0.1	2.0	True	89.0	High-Low	n/a	twobytwo	89.0	1.009	orange	2.0	task_switch	magnitude	switch	stim	poldrack-single-stim	s639	0	False
56.199	1.0	56.884	0.1	2.68	True	89.0	High-Low	stay	twobytwo	89.0	0.585	orange	2.0	cue_stay	magnitude	stay	stim	poldrack-single-stim	s639	0	False
59.785	1.0	61.218	0.9	2.0	True	89.0	High-Low	stay	twobytwo	89.0	0.533	blue	3.0	cue_stay	magnitude	stay	stim	poldrack-single-stim	s639	0	False
61.887	1.0	62.845	0.1	2.136	True	89.0	Color	n/a	twobytwo	89.0	0.858	blue	3.0	task_switch	color	switch	stim	poldrack-single-stim	s639	0	False
64.928	1.0	66.176	0.9	2.408	True	71.0	Orange-Blue	switch	twobytwo	71.0	0.348	orange	2.0	cue_switch	color	stay	stim	poldrack-single-stim	s639	0	False
67.441	1.0	68.239	0.1	2.136	True	89.0	Orange-Blue	stay	twobytwo	89.0	0.698	blue	7.0	cue_stay	color	stay	stim	poldrack-single-stim	s639	0	False
70.482	1.0	72.255	0.9	2.0	True	89.0	Orange-Blue	stay	twobytwo	89.0	0.873	blue	7.0	cue_stay	color	stay	stim	poldrack-single-stim	s639	0	False
72.588	1.0	73.843	0.1	2.0	True	71.0	High-Low	n/a	twobytwo	71.0	1.155	orange	9.0	task_switch	magnitude	switch	stim	poldrack-single-stim	s639	0	False
75.493	1.0	77.214	0.9	2.544	True	89.0	Orange-Blue	n/a	twobytwo	89.0	0.821	blue	6.0	task_switch	color	switch	stim	poldrack-single-stim	s639	0	False
78.142	1.0	78.839	0.1	2.136	True	89.0	Orange-Blue	stay	twobytwo	89.0	0.597	blue	4.0	cue_stay	color	stay	stim	poldrack-single-stim	s639	0	False
80.383	1.0	81.015	0.1	2.544	True	89.0	Orange-Blue	stay	twobytwo	89.0	0.532	blue	9.0	cue_stay	color	stay	stim	poldrack-single-stim	s639	0	False
83.032	1.0	83.9	0.1	2.68	True	89.0	High-Low	n/a	twobytwo	89.0	0.768	orange	3.0	task_switch	magnitude	switch	stim	poldrack-single-stim	s639	0	False
85.817	1.0	86.767	0.1	2.0	True	89.0	Magnitude	switch	twobytwo	89.0	0.85	orange	2.0	cue_switch	magnitude	stay	stim	poldrack-single-stim	s639	0	False
88.721	1.0	90.171	0.9	2.272	True	89.0	Color	n/a	twobytwo	89.0	0.55	blue	1.0	task_switch	color	switch	stim	poldrack-single-stim	s639	0	False
91.099	1.0	92.009	0.1	3.088	True	89.0	Magnitude	n/a	twobytwo	89.0	0.81	blue	1.0	task_switch	magnitude	switch	stim	poldrack-single-stim	s639	0	False
95.092	1.0	96.604	0.9	2.0	True	71.0	Color	n/a	twobytwo	71.0	0.612	orange	8.0	task_switch	color	switch	stim	poldrack-single-stim	s639	0	False
97.997	1.0	99.695	0.9	2.136	True	89.0	Color	stay	twobytwo	89.0	0.798	blue	1.0	cue_stay	color	stay	stim	poldrack-single-stim	s639	0	False
100.237	1.0	101.181	0.1	2.136	True	89.0	Magnitude	n/a	twobytwo	89.0	0.844	orange	4.0	task_switch	magnitude	switch	stim	poldrack-single-stim	s639	0	False
103.278	1.0	105.114	0.9	2.0	True	89.0	Magnitude	stay	twobytwo	89.0	0.936	blue	2.0	cue_stay	magnitude	stay	stim	poldrack-single-stim	s639	0	False
105.384	1.0	106.081	0.1	2.272	True	71.0	High-Low	switch	twobytwo	71.0	0.597	orange	8.0	cue_switch	magnitude	stay	stim	poldrack-single-stim	s639	0	False
107.761	1.0	108.415	0.1	2.0	True	89.0	Orange-Blue	n/a	twobytwo	89.0	0.554	blue	4.0	task_switch	color	switch	stim	poldrack-single-stim	s639	0	False
109.866	1.0	110.691	0.1	2.136	True	89.0	Magnitude	n/a	twobytwo	89.0	0.725	blue	3.0	task_switch	magnitude	switch	stim	poldrack-single-stim	s639	0	False
112.106	1.0	112.929	0.1	2.136	True	71.0	Orange-Blue	n/a	twobytwo	71.0	0.723	orange	7.0	task_switch	color	switch	stim	poldrack-single-stim	s639	0	False
115.147	1.0	116.807	0.9	2.544	True	71.0	Orange-Blue	stay	twobytwo	71.0	0.76	orange	1.0	cue_stay	color	stay	stim	poldrack-single-stim	s639	0	False
117.797	1.0	118.703	0.1	2.0	True	71.0	High-Low	n/a	twobytwo	71.0	0.806	blue	8.0	task_switch	magnitude	switch	stim	poldrack-single-stim	s639	0	False
120.7	1.0	122.154	0.9	2.136	True	89.0	High-Low	stay	twobytwo	89.0	0.554	blue	3.0	cue_stay	magnitude	stay	stim	poldrack-single-stim	s639	0	False
122.941	1.0	123.977	0.1	2.136	True	89.0	Color	n/a	twobytwo	89.0	0.936	blue	4.0	task_switch	color	switch	stim	poldrack-single-stim	s639	0	False
125.181	1.0	126.046	0.1	2.136	True	71.0	Magnitude	n/a	twobytwo	71.0	0.765	orange	9.0	task_switch	magnitude	switch	stim	poldrack-single-stim	s639	0	False
128.223	1.0	129.637	0.9	2.0	True	89.0	Orange-Blue	n/a	twobytwo	89.0	0.514	blue	7.0	task_switch	color	switch	stim	poldrack-single-stim	s639	0	False
131.127	1.0	132.588	0.9	2.136	True	89.0	Magnitude	n/a	twobytwo	89.0	0.561	blue	1.0	task_switch	magnitude	switch	stim	poldrack-single-stim	s639	0	False
133.367	1.0	134.252	0.1	2.0	True	89.0	Magnitude	stay	twobytwo	89.0	0.785	blue	1.0	cue_stay	magnitude	stay	stim	poldrack-single-stim	s639	0	False
135.472	1.0	136.325	0.1	2.136	True	89.0	High-Low	switch	twobytwo	89.0	0.753	blue	2.0	cue_switch	magnitude	stay	stim	poldrack-single-stim	s639	0	False
138.513	1.0	139.874	0.9	2.816	True	89.0	Orange-Blue	n/a	twobytwo	89.0	0.461	blue	8.0	task_switch	color	switch	stim	poldrack-single-stim	s639	0	False
142.234	1.0	143.52	0.9	2.136	True	71.0	Orange-Blue	stay	twobytwo	71.0	0.386	orange	8.0	cue_stay	color	stay	stim	poldrack-single-stim	s639	0	False
144.475	1.0	145.138	0.1	2.0	True	71.0	Orange-Blue	stay	twobytwo	71.0	0.563	orange	3.0	cue_stay	color	stay	stim	poldrack-single-stim	s639	0	False
146.579	1.0	147.315	0.1	2.0	False	71.0	Magnitude	n/a	twobytwo	89.0	0.636	orange	6.0	task_switch	magnitude	switch	stim	poldrack-single-stim	s639	0	False
148.685	1.0	149.427	0.1	2.272	True	89.0	Magnitude	stay	twobytwo	89.0	0.642	blue	4.0	cue_stay	magnitude	stay	stim	poldrack-single-stim	s639	0	False
151.062	1.0	152.249	0.1	2.0	True	71.0	Orange-Blue	n/a	twobytwo	71.0	1.087	orange	2.0	task_switch	color	switch	stim	poldrack-single-stim	s639	0	False
153.166	1.0	153.97	0.1	2.0	True	89.0	High-Low	n/a	twobytwo	89.0	0.704	orange	2.0	task_switch	magnitude	switch	stim	poldrack-single-stim	s639	0	False
155.271	1.0	155.992	0.1	2.0	True	71.0	Color	n/a	twobytwo	71.0	0.621	orange	7.0	task_switch	color	switch	stim	poldrack-single-stim	s639	0	False
158.177	1.0	159.525	0.9	2.408	True	71.0	High-Low	n/a	twobytwo	71.0	0.448	blue	7.0	task_switch	magnitude	switch	stim	poldrack-single-stim	s639	0	False
161.489	1.0	162.903	0.9	2.272	True	71.0	High-Low	stay	twobytwo	71.0	0.514	blue	6.0	cue_stay	magnitude	stay	stim	poldrack-single-stim	s639	0	False
163.866	1.0	164.767	0.1	2.136	True	89.0	Orange-Blue	n/a	twobytwo	89.0	0.801	blue	1.0	task_switch	color	switch	stim	poldrack-single-stim	s639	0	False
166.907	1.0	168.122	0.9	2.0	True	71.0	Color	switch	twobytwo	71.0	0.315	orange	9.0	cue_switch	color	stay	stim	poldrack-single-stim	s639	0	False
169.013	1.0	169.775	0.1	2.0	True	89.0	Magnitude	n/a	twobytwo	89.0	0.662	blue	1.0	task_switch	magnitude	switch	stim	poldrack-single-stim	s639	0	False
171.918	1.0	173.311	0.9	2.136	True	89.0	Orange-Blue	n/a	twobytwo	89.0	0.493	blue	1.0	task_switch	color	switch	stim	poldrack-single-stim	s639	0	False
174.96	1.0	176.306	0.9	2.0	True	89.0	High-Low	n/a	twobytwo	89.0	0.446	orange	1.0	task_switch	magnitude	switch	stim	poldrack-single-stim	s639	0	False
177.065	1.0	178.589	0.1	2.136	True	89.0	Orange-Blue	n/a	twobytwo	89.0	1.424	blue	2.0	task_switch	color	switch	stim	poldrack-single-stim	s639	0	False
179.306	1.0	180.148	0.1	2.408	True	89.0	Orange-Blue	stay	twobytwo	89.0	0.742	blue	2.0	cue_stay	color	stay	stim	poldrack-single-stim	s639	0	False
181.818	1.0	182.469	0.1	2.136	True	89.0	Magnitude	n/a	twobytwo	89.0	0.551	blue	1.0	task_switch	magnitude	switch	stim	poldrack-single-stim	s639	0	False
184.86	1.0	186.107	0.9	2.0	True	71.0	Orange-Blue	n/a	twobytwo	71.0	0.347	orange	6.0	task_switch	color	switch	stim	poldrack-single-stim	s639	0	False
186.965	1.0	187.593	0.1	2.136	False	71.0	High-Low	n/a	twobytwo	89.0	0.528	blue	6.0	task_switch	magnitude	switch	stim	poldrack-single-stim	s639	0	False
189.205	1.0	190.552	0.1	2.272	True	71.0	High-Low	stay	twobytwo	71.0	1.247	orange	6.0	cue_stay	magnitude	stay	stim	poldrack-single-stim	s639	0	False
192.382	1.0	193.846	0.9	2.0	True	71.0	Orange-Blue	n/a	twobytwo	71.0	0.564	orange	8.0	task_switch	color	switch	stim	poldrack-single-stim	s639	0	False
194.486	1.0	195.536	0.1	2.408	True	89.0	High-Low	n/a	twobytwo	89.0	0.95	orange	3.0	task_switch	magnitude	switch	stim	poldrack-single-stim	s639	0	False
197.799	1.0	199.133	0.9	2.0	True	71.0	Magnitude	switch	twobytwo	71.0	0.434	blue	9.0	cue_switch	magnitude	stay	stim	poldrack-single-stim	s639	0	False
199.903	1.0	201.376	0.1	2.136	True	71.0	Color	n/a	twobytwo	71.0	1.373	orange	3.0	task_switch	color	switch	stim	poldrack-single-stim	s639	0	False
202.944	1.0	204.351	0.9	2.408	True	71.0	Magnitude	n/a	twobytwo	71.0	0.507	orange	7.0	task_switch	magnitude	switch	stim	poldrack-single-stim	s639	0	False
206.257	1.0	207.574	0.9	2.136	True	89.0	Color	n/a	twobytwo	89.0	0.417	blue	3.0	task_switch	color	switch	stim	poldrack-single-stim	s639	0	False
208.497	1.0	209.725	0.1	2.408	True	71.0	Magnitude	n/a	twobytwo	71.0	1.128	blue	6.0	task_switch	magnitude	switch	stim	poldrack-single-stim	s639	0	False
211.811	1.0	213.069	0.9	2.136	True	71.0	Orange-Blue	n/a	twobytwo	71.0	0.358	orange	7.0	task_switch	color	switch	stim	poldrack-single-stim	s639	0	False
227.562	1.0	228.749	0.1	2.0	True	71.0	Orange-Blue	n/a	twobytwo	71.0	1.087	orange	6.0	task_switch	color	switch	stim	poldrack-single-stim	s639	1	False
229.668	1.0	230.198	0.1	2.272	True	71.0	Orange-Blue	stay	twobytwo	71.0	0.43	orange	8.0	cue_stay	color	stay	stim	poldrack-single-stim	s639	0	False
232.045	1.0	232.61	0.1	2.0	True	71.0	Color	switch	twobytwo	71.0	0.465	orange	6.0	cue_switch	color	stay	stim	poldrack-single-stim	s639	0	False
234.15	1.0	234.96	0.1	2.272	True	89.0	Orange-Blue	switch	twobytwo	89.0	0.71	blue	8.0	cue_switch	color	stay	stim	poldrack-single-stim	s639	0	False
237.327	1.0	238.725	0.9	2.272	True	71.0	Color	switch	twobytwo	71.0	0.498	orange	7.0	cue_switch	color	stay	stim	poldrack-single-stim	s639	0	False
239.704	1.0	240.758	0.1	2.952	True	89.0	Magnitude	n/a	twobytwo	89.0	0.954	orange	2.0	task_switch	magnitude	switch	stim	poldrack-single-stim	s639	0	False
242.762	1.0	243.598	0.1	2.68	True	89.0	Magnitude	stay	twobytwo	89.0	0.736	orange	4.0	cue_stay	magnitude	stay	stim	poldrack-single-stim	s639	0	False
246.348	1.0	247.54	0.9	2.136	True	89.0	Color	n/a	twobytwo	89.0	0.292	blue	7.0	task_switch	color	switch	stim	poldrack-single-stim	s639	0	False
249.388	1.0	251.117	0.9	2.272	True	89.0	Orange-Blue	switch	twobytwo	89.0	0.829	blue	4.0	cue_switch	color	stay	stim	poldrack-single-stim	s639	0	False
251.766	1.0	253.645	0.1	2.272	True	89.0	Color	switch	twobytwo	89.0	1.779	blue	7.0	cue_switch	color	stay	stim	poldrack-single-stim	s639	0	False
254.143	1.0	255.018	0.1	2.136	True	71.0	Color	stay	twobytwo	71.0	0.775	orange	3.0	cue_stay	color	stay	stim	poldrack-single-stim	s639	0	False
256.383	1.0	257.144	0.1	2.408	True	71.0	Magnitude	n/a	twobytwo	71.0	0.661	blue	7.0	task_switch	magnitude	switch	stim	poldrack-single-stim	s639	0	False
258.897	1.0	260.892	0.1	2.136	True	71.0	Orange-Blue	n/a	twobytwo	71.0	1.895	orange	4.0	task_switch	color	switch	stim	poldrack-single-stim	s639	0	False
261.139	1.0	261.924	0.1	2.136	True	89.0	Color	switch	twobytwo	89.0	0.685	blue	6.0	cue_switch	color	stay	stim	poldrack-single-stim	s639	0	False
264.179	1.0	265.561	0.9	2.0	True	89.0	High-Low	n/a	twobytwo	89.0	0.482	blue	4.0	task_switch	magnitude	switch	stim	poldrack-single-stim	s639	0	False
267.085	1.0	268.963	0.9	2.0	True	89.0	High-Low	stay	twobytwo	89.0	0.978	orange	4.0	cue_stay	magnitude	stay	stim	poldrack-single-stim	s639	0	False
269.99	1.0	271.452	0.9	2.0	True	89.0	Orange-Blue	n/a	twobytwo	89.0	0.562	blue	6.0	task_switch	color	switch	stim	poldrack-single-stim	s639	0	False
272.895	1.0	274.98	0.9	2.0	True	89.0	Magnitude	n/a	twobytwo	89.0	1.185	orange	4.0	task_switch	magnitude	switch	stim	poldrack-single-stim	s639	0	False
275.8	1.0	277.438	0.9	2.0	True	89.0	Color	n/a	twobytwo	89.0	0.738	blue	1.0	task_switch	color	switch	stim	poldrack-single-stim	s639	0	False
277.905	1.0	279.272	0.1	2.272	True	89.0	Magnitude	n/a	twobytwo	89.0	1.267	orange	2.0	task_switch	magnitude	switch	stim	poldrack-single-stim	s639	0	False
280.282	1.0	280.902	0.1	2.408	True	89.0	Magnitude	stay	twobytwo	89.0	0.52	orange	2.0	cue_stay	magnitude	stay	stim	poldrack-single-stim	s639	0	False
283.595	1.0	285.315	0.9	2.0	True	89.0	Magnitude	stay	twobytwo	89.0	0.82	blue	3.0	cue_stay	magnitude	stay	stim	poldrack-single-stim	s639	0	False
285.701	1.0	286.697	0.1	2.136	True	89.0	Orange-Blue	n/a	twobytwo	89.0	0.896	blue	3.0	task_switch	color	switch	stim	poldrack-single-stim	s639	0	False
288.743	1.0	289.986	0.9	2.0	True	71.0	Color	switch	twobytwo	71.0	0.343	orange	2.0	cue_switch	color	stay	stim	poldrack-single-stim	s639	0	False
290.847	1.0	291.928	0.1	2.136	True	89.0	Color	stay	twobytwo	89.0	0.981	blue	7.0	cue_stay	color	stay	stim	poldrack-single-stim	s639	0	False
293.888	1.0	295.177	0.9	2.544	True	89.0	Color	stay	twobytwo	89.0	0.389	blue	7.0	cue_stay	color	stay	stim	poldrack-single-stim	s639	0	False
296.538	1.0	297.271	0.1	2.68	True	71.0	Magnitude	n/a	twobytwo	71.0	0.633	orange	9.0	task_switch	magnitude	switch	stim	poldrack-single-stim	s639	0	False
300.124	1.0	301.456	0.9	3.088	True	89.0	Color	n/a	twobytwo	89.0	0.432	blue	6.0	task_switch	color	switch	stim	poldrack-single-stim	s639	0	False
303.317	1.0	304.054	0.1	2.136	True	89.0	Color	stay	twobytwo	89.0	0.637	blue	4.0	cue_stay	color	stay	stim	poldrack-single-stim	s639	0	False
305.559	1.0	306.072	0.1	2.544	True	89.0	Color	stay	twobytwo	89.0	0.413	blue	9.0	cue_stay	color	stay	stim	poldrack-single-stim	s639	0	False
308.208	1.0	309.241	0.1	2.0	True	89.0	High-Low	n/a	twobytwo	89.0	0.933	orange	3.0	task_switch	magnitude	switch	stim	poldrack-single-stim	s639	0	False
310.312	1.0	311.335	0.1	2.136	True	89.0	Magnitude	switch	twobytwo	89.0	0.923	orange	2.0	cue_switch	magnitude	stay	stim	poldrack-single-stim	s639	0	False
313.353	1.0	314.83	0.9	2.0	True	89.0	Orange-Blue	n/a	twobytwo	89.0	0.577	blue	1.0	task_switch	color	switch	stim	poldrack-single-stim	s639	0	False
315.459	1.0	316.182	0.1	2.408	True	89.0	Magnitude	n/a	twobytwo	89.0	0.623	blue	1.0	task_switch	magnitude	switch	stim	poldrack-single-stim	s639	0	False
318.771	1.0	320.066	0.9	2.0	True	71.0	Color	n/a	twobytwo	71.0	0.395	orange	8.0	task_switch	color	switch	stim	poldrack-single-stim	s639	0	False
321.675	1.0	322.92	0.9	2.0	True	89.0	Color	stay	twobytwo	89.0	0.345	blue	1.0	cue_stay	color	stay	stim	poldrack-single-stim	s639	0	False
323.78	1.0	324.754	0.1	2.0	True	89.0	Magnitude	n/a	twobytwo	89.0	0.874	orange	4.0	task_switch	magnitude	switch	stim	poldrack-single-stim	s639	0	False
326.685	1.0	328.027	0.9	2.68	True	89.0	Magnitude	stay	twobytwo	89.0	0.442	blue	2.0	cue_stay	magnitude	stay	stim	poldrack-single-stim	s639	0	False
329.47	1.0	330.253	0.1	2.272	True	71.0	High-Low	switch	twobytwo	71.0	0.683	orange	8.0	cue_switch	magnitude	stay	stim	poldrack-single-stim	s639	0	False
331.846	1.0	332.763	0.1	2.408	True	89.0	Color	n/a	twobytwo	89.0	0.817	blue	4.0	task_switch	color	switch	stim	poldrack-single-stim	s639	0	False
334.36	1.0	335.129	0.1	3.224	True	89.0	Magnitude	n/a	twobytwo	89.0	0.669	blue	3.0	task_switch	magnitude	switch	stim	poldrack-single-stim	s639	0	False
337.69	1.0	338.431	0.1	2.408	True	71.0	Orange-Blue	n/a	twobytwo	71.0	0.641	orange	7.0	task_switch	color	switch	stim	poldrack-single-stim	s639	0	False
341.003	1.0	342.304	0.9	2.816	True	71.0	Orange-Blue	stay	twobytwo	71.0	0.401	orange	1.0	cue_stay	color	stay	stim	poldrack-single-stim	s639	0	False
343.925	1.0	344.587	0.1	2.408	False	71.0	High-Low	n/a	twobytwo	89.0	0.562	blue	8.0	task_switch	magnitude	switch	stim	poldrack-single-stim	s639	0	False
347.238	1.0	348.732	0.9	2.136	True	89.0	High-Low	stay	twobytwo	89.0	0.594	blue	3.0	cue_stay	magnitude	stay	stim	poldrack-single-stim	s639	0	False
349.479	1.0	350.528	0.1	2.136	True	89.0	Orange-Blue	n/a	twobytwo	89.0	0.949	blue	4.0	task_switch	color	switch	stim	poldrack-single-stim	s639	0	False
351.72	1.0	352.489	0.1	2.0	True	71.0	High-Low	n/a	twobytwo	71.0	0.669	orange	9.0	task_switch	magnitude	switch	stim	poldrack-single-stim	s639	0	False
354.626	1.0	355.955	0.9	2.0	True	89.0	Color	n/a	twobytwo	89.0	0.429	blue	7.0	task_switch	color	switch	stim	poldrack-single-stim	s639	0	False
357.531	1.0	359.066	0.9	2.272	True	89.0	High-Low	n/a	twobytwo	89.0	0.635	blue	1.0	task_switch	magnitude	switch	stim	poldrack-single-stim	s639	0	False
359.909	1.0	360.677	0.1	2.408	True	89.0	High-Low	stay	twobytwo	89.0	0.668	blue	1.0	cue_stay	magnitude	stay	stim	poldrack-single-stim	s639	0	False
362.423	1.0	363.401	0.1	2.0	True	89.0	Magnitude	switch	twobytwo	89.0	0.878	blue	2.0	cue_switch	magnitude	stay	stim	poldrack-single-stim	s639	0	False
365.328	1.0	366.683	0.9	2.136	True	89.0	Color	n/a	twobytwo	89.0	0.455	blue	8.0	task_switch	color	switch	stim	poldrack-single-stim	s639	0	False
368.37	1.0	369.637	0.9	2.0	True	71.0	Color	stay	twobytwo	71.0	0.367	orange	8.0	cue_stay	color	stay	stim	poldrack-single-stim	s639	0	False
370.475	1.0	371.543	0.1	2.408	False	71.0	Color	stay	twobytwo	89.0	0.968	orange	3.0	cue_stay	color	stay	stim	poldrack-single-stim	s639	0	False
372.988	1.0	373.962	0.1	2.272	True	71.0	Magnitude	n/a	twobytwo	71.0	0.874	orange	6.0	task_switch	magnitude	switch	stim	poldrack-single-stim	s639	0	False
375.365	1.0	376.127	0.1	2.0	True	89.0	Magnitude	stay	twobytwo	89.0	0.662	blue	4.0	cue_stay	magnitude	stay	stim	poldrack-single-stim	s639	0	False
377.469	1.0	378.399	0.1	2.272	True	71.0	Orange-Blue	n/a	twobytwo	71.0	0.83	orange	2.0	task_switch	color	switch	stim	poldrack-single-stim	s639	0	False
379.847	1.0	380.767	0.1	2.0	True	89.0	High-Low	n/a	twobytwo	89.0	0.82	orange	2.0	task_switch	magnitude	switch	stim	poldrack-single-stim	s639	0	False
381.95	1.0	382.678	0.1	2.0	True	71.0	Color	n/a	twobytwo	71.0	0.628	orange	7.0	task_switch	color	switch	stim	poldrack-single-stim	s639	0	False
384.855	1.0	386.339	0.9	2.272	True	71.0	Magnitude	n/a	twobytwo	71.0	0.584	blue	7.0	task_switch	magnitude	switch	stim	poldrack-single-stim	s639	0	False
388.033	1.0	389.349	0.9	2.136	True	71.0	Magnitude	stay	twobytwo	71.0	0.416	blue	6.0	cue_stay	magnitude	stay	stim	poldrack-single-stim	s639	0	False
390.273	1.0	390.989	0.1	2.0	True	89.0	Color	n/a	twobytwo	89.0	0.616	blue	1.0	task_switch	color	switch	stim	poldrack-single-stim	s639	0	False
393.178	1.0	394.482	0.9	2.0	True	71.0	Orange-Blue	switch	twobytwo	71.0	0.404	orange	9.0	cue_switch	color	stay	stim	poldrack-single-stim	s639	0	False
395.282	1.0	396.358	0.1	2.0	True	89.0	Magnitude	n/a	twobytwo	89.0	0.976	blue	1.0	task_switch	magnitude	switch	stim	poldrack-single-stim	s639	0	False
398.186	1.0	399.607	0.9	2.0	True	89.0	Orange-Blue	n/a	twobytwo	89.0	0.521	blue	1.0	task_switch	color	switch	stim	poldrack-single-stim	s639	0	False
401.091	1.0	402.54	0.9	2.0	True	89.0	High-Low	n/a	twobytwo	89.0	0.549	orange	1.0	task_switch	magnitude	switch	stim	poldrack-single-stim	s639	0	False
403.196	1.0	404.272	0.1	2.136	True	89.0	Orange-Blue	n/a	twobytwo	89.0	0.976	blue	2.0	task_switch	color	switch	stim	poldrack-single-stim	s639	0	False
405.438	1.0	406.036	0.1	2.0	True	89.0	Orange-Blue	stay	twobytwo	89.0	0.498	blue	2.0	cue_stay	color	stay	stim	poldrack-single-stim	s639	0	False
407.544	1.0	408.075	0.1	2.0	True	89.0	Magnitude	n/a	twobytwo	89.0	0.431	blue	1.0	task_switch	magnitude	switch	stim	poldrack-single-stim	s639	0	False
410.45	1.0	411.754	0.9	2.136	True	71.0	Color	n/a	twobytwo	71.0	0.404	orange	6.0	task_switch	color	switch	stim	poldrack-single-stim	s639	0	False
412.692	1.0	413.548	0.1	2.0	True	71.0	High-Low	n/a	twobytwo	71.0	0.756	blue	6.0	task_switch	magnitude	switch	stim	poldrack-single-stim	s639	0	False
414.796	1.0	415.312	0.1	2.136	True	71.0	High-Low	stay	twobytwo	71.0	0.416	orange	6.0	cue_stay	magnitude	stay	stim	poldrack-single-stim	s639	0	False
417.836	1.0	419.229	0.9	2.68	True	71.0	Orange-Blue	n/a	twobytwo	71.0	0.493	orange	8.0	task_switch	color	switch	stim	poldrack-single-stim	s639	0	False
420.622	1.0	421.708	0.1	2.272	True	89.0	Magnitude	n/a	twobytwo	89.0	0.986	orange	3.0	task_switch	magnitude	switch	stim	poldrack-single-stim	s639	0	False
423.799	1.0	425.354	0.9	2.136	True	71.0	High-Low	switch	twobytwo	71.0	0.655	blue	9.0	cue_switch	magnitude	stay	stim	poldrack-single-stim	s639	0	False
426.038	1.0	427.141	0.1	2.0	True	71.0	Orange-Blue	n/a	twobytwo	71.0	1.003	orange	3.0	task_switch	color	switch	stim	poldrack-single-stim	s639	0	False
428.943	1.0	430.28	0.9	2.136	True	71.0	Magnitude	n/a	twobytwo	71.0	0.437	orange	7.0	task_switch	magnitude	switch	stim	poldrack-single-stim	s639	0	False
431.984	1.0	433.455	0.9	2.68	True	89.0	Orange-Blue	n/a	twobytwo	89.0	0.571	blue	3.0	task_switch	color	switch	stim	poldrack-single-stim	s639	0	False
434.769	1.0	435.643	0.1	2.272	True	71.0	Magnitude	n/a	twobytwo	71.0	0.774	blue	6.0	task_switch	magnitude	switch	stim	poldrack-single-stim	s639	0	False
437.946	1.0	439.303	0.9	2.0	True	71.0	Color	n/a	twobytwo	71.0	0.457	orange	7.0	task_switch	color	switch	stim	poldrack-single-stim	s639	0	False
453.561	1.0	454.381	0.1	2.0	True	71.0	Orange-Blue	n/a	twobytwo	71.0	0.72	orange	6.0	task_switch	color	switch	stim	poldrack-single-stim	s639	1	False
455.666	1.0	456.207	0.1	2.136	True	71.0	Orange-Blue	stay	twobytwo	71.0	0.441	orange	8.0	cue_stay	color	stay	stim	poldrack-single-stim	s639	0	False
457.908	1.0	458.473	0.1	2.0	True	71.0	Color	switch	twobytwo	71.0	0.465	orange	6.0	cue_switch	color	stay	stim	poldrack-single-stim	s639	0	False
460.014	1.0	460.533	0.1	2.0	False	89.0	Orange-Blue	switch	twobytwo	71.0	0.419	blue	8.0	cue_switch	color	stay	stim	poldrack-single-stim	s639	0	False
462.918	1.0	464.426	0.9	2.0	True	71.0	Color	switch	twobytwo	71.0	0.608	orange	7.0	cue_switch	color	stay	stim	poldrack-single-stim	s639	0	False
465.024	1.0	465.783	0.1	2.272	True	89.0	High-Low	n/a	twobytwo	89.0	0.659	orange	2.0	task_switch	magnitude	switch	stim	poldrack-single-stim	s639	0	False
467.401	1.0	468.005	0.1	2.408	True	89.0	High-Low	stay	twobytwo	89.0	0.504	orange	4.0	cue_stay	magnitude	stay	stim	poldrack-single-stim	s639	0	False
470.713	1.0	472.477	0.9	2.0	True	89.0	Orange-Blue	n/a	twobytwo	89.0	0.864	blue	7.0	task_switch	color	switch	stim	poldrack-single-stim	s639	0	False
473.62	1.0	475.284	0.9	2.0	True	89.0	Color	switch	twobytwo	89.0	0.764	blue	4.0	cue_switch	color	stay	stim	poldrack-single-stim	s639	0	False
475.725	1.0	476.454	0.1	2.0	True	89.0	Orange-Blue	switch	twobytwo	89.0	0.629	blue	7.0	cue_switch	color	stay	stim	poldrack-single-stim	s639	0	False
477.829	1.0	478.574	0.1	2.272	True	71.0	Orange-Blue	stay	twobytwo	71.0	0.645	orange	3.0	cue_stay	color	stay	stim	poldrack-single-stim	s639	0	False
480.205	1.0	481.618	0.1	2.136	True	71.0	High-Low	n/a	twobytwo	71.0	1.313	blue	7.0	task_switch	magnitude	switch	stim	poldrack-single-stim	s639	0	False
482.445	1.0	483.388	0.1	2.0	False	71.0	Orange-Blue	n/a	twobytwo	89.0	0.843	orange	4.0	task_switch	color	switch	stim	poldrack-single-stim	s639	0	False
484.55	1.0	485.497	0.1	2.544	True	89.0	Color	switch	twobytwo	89.0	0.847	blue	6.0	cue_switch	color	stay	stim	poldrack-single-stim	s639	0	False
487.999	1.0	489.735	0.9	2.272	True	89.0	Magnitude	n/a	twobytwo	89.0	0.836	blue	4.0	task_switch	magnitude	switch	stim	poldrack-single-stim	s639	0	False
491.176	1.0	492.802	0.9	2.272	True	89.0	Magnitude	stay	twobytwo	89.0	0.726	orange	4.0	cue_stay	magnitude	stay	stim	poldrack-single-stim	s639	0	False
494.354	1.0	495.866	0.9	2.0	True	89.0	Orange-Blue	n/a	twobytwo	89.0	0.612	blue	6.0	task_switch	color	switch	stim	poldrack-single-stim	s639	0	False
497.259	1.0	498.75	0.9	2.0	True	89.0	Magnitude	n/a	twobytwo	89.0	0.591	orange	4.0	task_switch	magnitude	switch	stim	poldrack-single-stim	s639	0	False
500.164	1.0	501.627	0.9	2.136	True	89.0	Orange-Blue	n/a	twobytwo	89.0	0.563	blue	1.0	task_switch	color	switch	stim	poldrack-single-stim	s639	0	False
502.404	1.0	503.173	0.1	2.0	True	89.0	High-Low	n/a	twobytwo	89.0	0.669	orange	2.0	task_switch	magnitude	switch	stim	poldrack-single-stim	s639	0	False
504.509	1.0	505.228	0.1	2.136	True	89.0	High-Low	stay	twobytwo	89.0	0.619	orange	2.0	cue_stay	magnitude	stay	stim	poldrack-single-stim	s639	0	False
507.55	1.0	509.033	0.9	2.272	True	89.0	High-Low	stay	twobytwo	89.0	0.583	blue	3.0	cue_stay	magnitude	stay	stim	poldrack-single-stim	s639	0	False
509.926	1.0	511.176	0.1	2.136	True	89.0	Color	n/a	twobytwo	89.0	1.15	blue	3.0	task_switch	color	switch	stim	poldrack-single-stim	s639	0	False
512.967	1.0	514.449	0.9	2.272	False	71.0	Orange-Blue	switch	twobytwo	89.0	0.582	orange	2.0	cue_switch	color	stay	stim	poldrack-single-stim	s639	0	False
515.344	1.0	516.194	0.1	2.0	True	89.0	Orange-Blue	stay	twobytwo	89.0	0.75	blue	7.0	cue_stay	color	stay	stim	poldrack-single-stim	s639	0	False
518.25	1.0	519.636	0.9	2.816	True	89.0	Orange-Blue	stay	twobytwo	89.0	0.486	blue	7.0	cue_stay	color	stay	stim	poldrack-single-stim	s639	0	False
521.171	1.0	521.883	0.1	2.408	True	71.0	Magnitude	n/a	twobytwo	71.0	0.612	orange	9.0	task_switch	magnitude	switch	stim	poldrack-single-stim	s639	0	False
524.484	1.0	525.872	0.9	2.0	True	89.0	Orange-Blue	n/a	twobytwo	89.0	0.488	blue	6.0	task_switch	color	switch	stim	poldrack-single-stim	s639	0	False
526.589	1.0	527.388	0.1	2.544	True	89.0	Orange-Blue	stay	twobytwo	89.0	0.699	blue	4.0	cue_stay	color	stay	stim	poldrack-single-stim	s639	0	False
529.24	1.0	529.759	0.1	2.136	True	89.0	Orange-Blue	stay	twobytwo	89.0	0.419	blue	9.0	cue_stay	color	stay	stim	poldrack-single-stim	s639	0	False
531.481	1.0	532.585	0.1	2.0	True	89.0	High-Low	n/a	twobytwo	89.0	1.004	orange	3.0	task_switch	magnitude	switch	stim	poldrack-single-stim	s639	0	False
533.587	1.0	534.246	0.1	2.0	True	89.0	Magnitude	switch	twobytwo	89.0	0.559	orange	2.0	cue_switch	magnitude	stay	stim	poldrack-single-stim	s639	0	False
536.492	1.0	537.938	0.9	2.136	True	89.0	Color	n/a	twobytwo	89.0	0.546	blue	1.0	task_switch	color	switch	stim	poldrack-single-stim	s639	0	False
538.733	1.0	539.594	0.1	2.136	True	89.0	High-Low	n/a	twobytwo	89.0	0.761	blue	1.0	task_switch	magnitude	switch	stim	poldrack-single-stim	s639	0	False
541.775	1.0	543.007	0.9	2.272	True	71.0	Orange-Blue	n/a	twobytwo	71.0	0.332	orange	8.0	task_switch	color	switch	stim	poldrack-single-stim	s639	0	False
544.952	1.0	546.345	0.9	3.224	True	89.0	Orange-Blue	stay	twobytwo	89.0	0.493	blue	1.0	cue_stay	color	stay	stim	poldrack-single-stim	s639	0	False
548.281	1.0	549.087	0.1	2.0	True	89.0	Magnitude	n/a	twobytwo	89.0	0.706	orange	4.0	task_switch	magnitude	switch	stim	poldrack-single-stim	s639	0	False
551.185	1.0	552.511	0.9	2.0	True	89.0	Magnitude	stay	twobytwo	89.0	0.426	blue	2.0	cue_stay	magnitude	stay	stim	poldrack-single-stim	s639	0	False
553.289	1.0	554.019	0.1	2.272	True	71.0	High-Low	switch	twobytwo	71.0	0.63	orange	8.0	cue_switch	magnitude	stay	stim	poldrack-single-stim	s639	0	False
555.667	1.0	556.362	0.1	2.136	True	89.0	Orange-Blue	n/a	twobytwo	89.0	0.595	blue	4.0	task_switch	color	switch	stim	poldrack-single-stim	s639	0	False
557.908	1.0	558.661	0.1	2.0	True	89.0	Magnitude	n/a	twobytwo	89.0	0.653	blue	3.0	task_switch	magnitude	switch	stim	poldrack-single-stim	s639	0	False
560.014	1.0	560.726	0.1	2.0	True	71.0	Color	n/a	twobytwo	71.0	0.612	orange	7.0	task_switch	color	switch	stim	poldrack-single-stim	s639	0	False
562.919	1.0	564.214	0.9	2.0	True	71.0	Color	stay	twobytwo	71.0	0.395	orange	1.0	cue_stay	color	stay	stim	poldrack-single-stim	s639	0	False
565.024	1.0	565.818	0.1	2.68	True	71.0	Magnitude	n/a	twobytwo	71.0	0.694	blue	8.0	task_switch	magnitude	switch	stim	poldrack-single-stim	s639	0	False
568.61	1.0	570.004	0.9	2.0	True	89.0	Magnitude	stay	twobytwo	89.0	0.494	blue	3.0	cue_stay	magnitude	stay	stim	poldrack-single-stim	s639	0	False
570.715	1.0	571.638	0.1	2.272	True	89.0	Color	n/a	twobytwo	89.0	0.823	blue	4.0	task_switch	color	switch	stim	poldrack-single-stim	s639	0	False
573.092	1.0	573.812	0.1	2.0	True	71.0	Magnitude	n/a	twobytwo	71.0	0.62	orange	9.0	task_switch	magnitude	switch	stim	poldrack-single-stim	s639	0	False
575.998	1.0	577.323	0.9	2.272	True	89.0	Color	n/a	twobytwo	89.0	0.425	blue	7.0	task_switch	color	switch	stim	poldrack-single-stim	s639	0	False
579.175	1.0	580.584	0.9	2.952	True	89.0	High-Low	n/a	twobytwo	89.0	0.509	blue	1.0	task_switch	magnitude	switch	stim	poldrack-single-stim	s639	0	False
582.232	1.0	582.916	0.1	2.0	True	89.0	High-Low	stay	twobytwo	89.0	0.584	blue	1.0	cue_stay	magnitude	stay	stim	poldrack-single-stim	s639	0	False
584.338	1.0	585.11	0.1	2.0	True	89.0	Magnitude	switch	twobytwo	89.0	0.672	blue	2.0	cue_switch	magnitude	stay	stim	poldrack-single-stim	s639	0	False
587.243	1.0	588.626	0.9	2.0	True	89.0	Orange-Blue	n/a	twobytwo	89.0	0.483	blue	8.0	task_switch	color	switch	stim	poldrack-single-stim	s639	0	False
590.148	1.0	591.362	0.9	2.0	True	71.0	Orange-Blue	stay	twobytwo	71.0	0.314	orange	8.0	cue_stay	color	stay	stim	poldrack-single-stim	s639	0	False
592.253	1.0	592.822	0.1	2.136	True	71.0	Orange-Blue	stay	twobytwo	71.0	0.469	orange	3.0	cue_stay	color	stay	stim	poldrack-single-stim	s639	0	False
594.494	1.0	595.198	0.1	2.0	False	71.0	High-Low	n/a	twobytwo	89.0	0.604	orange	6.0	task_switch	magnitude	switch	stim	poldrack-single-stim	s639	0	False
596.599	1.0	597.318	0.1	2.0	True	89.0	High-Low	stay	twobytwo	89.0	0.619	blue	4.0	cue_stay	magnitude	stay	stim	poldrack-single-stim	s639	0	False
598.705	1.0	599.677	0.1	2.0	True	71.0	Color	n/a	twobytwo	71.0	0.872	orange	2.0	task_switch	color	switch	stim	poldrack-single-stim	s639	0	False
600.81	1.0	601.603	0.1	2.272	True	89.0	Magnitude	n/a	twobytwo	89.0	0.693	orange	2.0	task_switch	magnitude	switch	stim	poldrack-single-stim	s639	0	False
603.186	1.0	604.699	0.1	2.136	True	71.0	Color	n/a	twobytwo	71.0	1.413	orange	7.0	task_switch	color	switch	stim	poldrack-single-stim	s639	0	False
606.228	1.0	607.764	0.9	2.0	True	71.0	Magnitude	n/a	twobytwo	71.0	0.636	blue	7.0	task_switch	magnitude	switch	stim	poldrack-single-stim	s639	0	False
609.132	1.0	610.57	0.9	2.136	True	71.0	Magnitude	stay	twobytwo	71.0	0.538	blue	6.0	cue_stay	magnitude	stay	stim	poldrack-single-stim	s639	0	False
611.373	1.0	612.106	0.1	2.816	True	89.0	Color	n/a	twobytwo	89.0	0.633	blue	1.0	task_switch	color	switch	stim	poldrack-single-stim	s639	0	False
615.093	1.0	616.599	0.9	2.408	True	71.0	Orange-Blue	switch	twobytwo	71.0	0.606	orange	9.0	cue_switch	color	stay	stim	poldrack-single-stim	s639	0	False
617.606	1.0	618.618	0.1	2.0	True	89.0	Magnitude	n/a	twobytwo	89.0	0.912	blue	1.0	task_switch	magnitude	switch	stim	poldrack-single-stim	s639	0	False
620.511	1.0	621.888	0.9	2.136	True	89.0	Orange-Blue	n/a	twobytwo	89.0	0.477	blue	1.0	task_switch	color	switch	stim	poldrack-single-stim	s639	0	False
623.555	1.0	625.061	0.9	2.136	True	89.0	High-Low	n/a	twobytwo	89.0	0.606	orange	1.0	task_switch	magnitude	switch	stim	poldrack-single-stim	s639	0	False
625.796	1.0	626.743	0.1	2.136	True	89.0	Orange-Blue	n/a	twobytwo	89.0	0.847	blue	2.0	task_switch	color	switch	stim	poldrack-single-stim	s639	0	False
628.037	1.0	628.662	0.1	2.544	True	89.0	Orange-Blue	stay	twobytwo	89.0	0.525	blue	2.0	cue_stay	color	stay	stim	poldrack-single-stim	s639	0	False
630.686	1.0	631.473	0.1	2.136	True	89.0	Magnitude	n/a	twobytwo	89.0	0.687	blue	1.0	task_switch	magnitude	switch	stim	poldrack-single-stim	s639	0	False
633.728	1.0	635.026	0.9	2.0	True	71.0	Color	n/a	twobytwo	71.0	0.398	orange	6.0	task_switch	color	switch	stim	poldrack-single-stim	s639	0	False
635.833	1.0	636.843	0.1	2.0	True	71.0	High-Low	n/a	twobytwo	71.0	0.91	blue	6.0	task_switch	magnitude	switch	stim	poldrack-single-stim	s639	0	False
637.939	1.0	638.535	0.1	2.0	True	71.0	High-Low	stay	twobytwo	71.0	0.496	orange	6.0	cue_stay	magnitude	stay	stim	poldrack-single-stim	s639	0	False
640.845	1.0	642.115	0.9	2.0	True	71.0	Color	n/a	twobytwo	71.0	0.37	orange	8.0	task_switch	color	switch	stim	poldrack-single-stim	s639	0	False
642.95	1.0	643.852	0.1	2.136	True	89.0	Magnitude	n/a	twobytwo	89.0	0.802	orange	3.0	task_switch	magnitude	switch	stim	poldrack-single-stim	s639	0	False
645.992	1.0	647.443	0.9	2.0	True	71.0	High-Low	switch	twobytwo	71.0	0.551	blue	9.0	cue_switch	magnitude	stay	stim	poldrack-single-stim	s639	0	False
648.098	1.0	649.174	0.1	2.0	True	71.0	Orange-Blue	n/a	twobytwo	71.0	0.976	orange	3.0	task_switch	color	switch	stim	poldrack-single-stim	s639	0	False
651.003	1.0	652.433	0.9	2.0	True	71.0	Magnitude	n/a	twobytwo	71.0	0.53	orange	7.0	task_switch	magnitude	switch	stim	poldrack-single-stim	s639	0	False
653.909	1.0	655.251	0.9	2.136	True	89.0	Orange-Blue	n/a	twobytwo	89.0	0.442	blue	3.0	task_switch	color	switch	stim	poldrack-single-stim	s639	0	False
656.151	1.0	656.935	0.1	2.136	True	71.0	Magnitude	n/a	twobytwo	71.0	0.684	blue	6.0	task_switch	magnitude	switch	stim	poldrack-single-stim	s639	0	False
659.192	1.0	660.511	0.9	2.136	True	71.0	Color	n/a	twobytwo	71.0	0.419	orange	7.0	task_switch	color	switch	stim	poldrack-single-stim	s639	0	False
