onset	duration	movement_onset	EV	action	block_duration	experiment_exp_id	gain_amount	gain_probability	key_press	loss_amount	loss_probability	num_cards	num_click_in_round	num_loss_cards	risk	response_time	total_cards	trial_id	trial_type	worker_id	junk	feedback
3.014	4.882	7.896	-0.5105089026964025	draw_card	4.882	columbia_card_task_fmri	12.0	0.8333333333333334	89.0	-70.0	0.1666666666666666	6.0	1.0	1.0	-2.14948272509087	4.882	n/a	stim	poldrack-single-stim	s640	False	1
7.9	2.942	10.842	-3.243842236029735	draw_card	2.942	columbia_card_task_fmri	12.0	0.8	89.0	-70.0	0.2	6.0	2.0	1.0	0.0894292199079345	2.942	n/a	stim	poldrack-single-stim	s640	False	1
10.844	2.482	13.326	-7.343842236029737	draw_card	2.482	columbia_card_task_fmri	12.0	0.75	89.0	-70.0	0.25	6.0	3.0	1.0	2.7949186155110866	2.482	3.0	stim	poldrack-single-stim	s640	False	0
14.083	1.5	13.332	n/a	-1.0	2.454	columbia_card_task_fmri	n/a	n/a	-1.0	n/a	n/a	n/a	n/a	n/a	n/a	n/a	n/a	ITI	poldrack-single-stim	s640	False	0
15.789	2.556	18.345	0.3228244306369314	draw_card	2.556	columbia_card_task_fmri	14.0	0.8333333333333334	89.0	-75.0	0.1666666666666666	6.0	1.0	1.0	0.4575448085963316	2.556	n/a	stim	poldrack-single-stim	s640	False	1
18.347	0.18	18.527	-2.643842236029736	draw_card	0.18	columbia_card_task_fmri	14.0	0.8	89.0	-75.0	0.2	6.0	2.0	1.0	2.887827948725487	0.18	n/a	stim	poldrack-single-stim	s640	False	1
18.529	2.862	21.391	-7.093842236029737	draw_card	2.862	columbia_card_task_fmri	14.0	0.75	89.0	-75.0	0.25	6.0	3.0	1.0	5.824528151290025	2.862	n/a	stim	poldrack-single-stim	s640	False	1
21.396	1.566	22.962	-14.510508902696404	end_round	1.566	columbia_card_task_fmri	14.0	0.6666666666666667	71.0	-75.0	0.3333333333333333	6.0	4.0	1.0	9.239988507939024	1.566	3.0	stim	poldrack-single-stim	s640	False	1
23.715	1.5	22.964	n/a	-1.0	2.454	columbia_card_task_fmri	n/a	n/a	-1.0	n/a	n/a	n/a	n/a	n/a	n/a	n/a	n/a	ITI	poldrack-single-stim	s640	False	0
25.421	3.763	29.184	1.9894910973035973	draw_card	3.763	columbia_card_task_fmri	15.0	0.8333333333333334	89.0	-70.0	0.1666666666666666	6.0	1.0	1.0	-1.0322198337817667	3.763	n/a	stim	poldrack-single-stim	s640	False	1
29.185	3.716	32.901	-0.8438422360297364	draw_card	3.716	columbia_card_task_fmri	15.0	0.8	89.0	-70.0	0.2	6.0	2.0	1.0	1.288710694184367	3.716	n/a	stim	poldrack-single-stim	s640	False	1
32.904	4.547	37.451	-5.093842236029737	end_round	4.547	columbia_card_task_fmri	15.0	0.75	71.0	-70.0	0.25	6.0	3.0	1.0	4.093292888087952	4.547	2.0	stim	poldrack-single-stim	s640	False	1
38.207	1.5	37.456	n/a	-1.0	2.522	columbia_card_task_fmri	n/a	n/a	-1.0	n/a	n/a	n/a	n/a	n/a	n/a	n/a	n/a	ITI	poldrack-single-stim	s640	False	0
39.981	2.516	42.497	2.8228244306369312	draw_card	2.516	columbia_card_task_fmri	17.0	0.8333333333333334	89.0	-75.0	0.1666666666666666	6.0	1.0	1.0	1.5749223028580062	2.516	n/a	stim	poldrack-single-stim	s640	False	1
42.499	0.938	43.437	-0.2438422360297349	draw_card	0.938	columbia_card_task_fmri	17.0	0.8	89.0	-75.0	0.2	6.0	2.0	1.0	4.087216224995579	0.938	n/a	stim	poldrack-single-stim	s640	False	1
43.439	1.036	44.475	-4.843842236029737	draw_card	1.036	columbia_card_task_fmri	17.0	0.75	89.0	-75.0	0.25	6.0	3.0	1.0	7.123001107396114	1.036	n/a	stim	poldrack-single-stim	s640	False	1
44.477	1.396	45.873	-12.510508902696404	end_round	1.396	columbia_card_task_fmri	17.0	0.6666666666666667	71.0	-75.0	0.3333333333333333	6.0	4.0	1.0	10.653682894333263	1.396	3.0	stim	poldrack-single-stim	s640	False	1
46.627	1.5	45.876	n/a	-1.0	2.386	columbia_card_task_fmri	n/a	n/a	-1.0	n/a	n/a	n/a	n/a	n/a	n/a	n/a	n/a	ITI	poldrack-single-stim	s640	False	0
48.266	1.95	50.216	4.156157763970263	draw_card	1.95	columbia_card_task_fmri	24.0	0.75	89.0	-60.0	0.25	8.0	1.0	2.0	3.660496199384383	1.95	n/a	stim	poldrack-single-stim	s640	False	1
50.217	2.038	52.255	1.1561577639702636	draw_card	2.038	columbia_card_task_fmri	24.0	0.7142857142857143	89.0	-60.0	0.2857142857142857	8.0	2.0	2.0	5.233999424888609	2.038	n/a	stim	poldrack-single-stim	s640	False	1
52.256	2.991	55.247	-2.8438422360297366	draw_card	2.991	columbia_card_task_fmri	24.0	0.6666666666666667	89.0	-60.0	0.3333333333333333	8.0	3.0	2.0	6.883913556029036	2.991	3.0	stim	poldrack-single-stim	s640	False	0
56.001	1.5	55.25	n/a	-1.0	2.454	columbia_card_task_fmri	n/a	n/a	-1.0	n/a	n/a	n/a	n/a	n/a	n/a	n/a	n/a	ITI	poldrack-single-stim	s640	False	0
57.707	2.023	59.73	4.156157763970263	draw_card	2.023	columbia_card_task_fmri	29.0	0.75	89.0	-75.0	0.25	8.0	1.0	2.0	12.31721880252806	2.023	n/a	stim	poldrack-single-stim	s640	False	1
59.732	1.051	60.783	0.4418720496845518	draw_card	1.051	columbia_card_task_fmri	29.0	0.7142857142857143	89.0	-75.0	0.2857142857142857	8.0	2.0	2.0	14.265693351887748	1.051	2.0	stim	poldrack-single-stim	s640	False	0
61.54	1.5	60.789	n/a	-1.0	2.522	columbia_card_task_fmri	n/a	n/a	-1.0	n/a	n/a	n/a	n/a	n/a	n/a	n/a	n/a	ITI	poldrack-single-stim	s640	False	0
63.314	1.766	65.08	-0.066064458251956	draw_card	1.766	columbia_card_task_fmri	17.0	0.7777777777777778	89.0	-65.0	0.2222222222222222	9.0	1.0	2.0	1.379314655761959	1.766	n/a	stim	poldrack-single-stim	s640	False	1
65.082	2.079	67.161	-2.3438422360297366	draw_card	2.079	columbia_card_task_fmri	17.0	0.75	89.0	-65.0	0.25	9.0	2.0	2.0	2.7949186155110866	2.079	n/a	stim	poldrack-single-stim	s640	False	1
67.163	2.244	69.407	-5.272413664601164	draw_card	2.244	columbia_card_task_fmri	17.0	0.7142857142857143	89.0	-65.0	0.2857142857142857	9.0	3.0	2.0	4.330920790904514	2.244	n/a	stim	poldrack-single-stim	s640	False	1
69.409	2.193	71.602	-9.177175569363069	draw_card	2.193	columbia_card_task_fmri	17.0	0.6666666666666667	89.0	-65.0	0.3333333333333333	9.0	4.0	2.0	5.941515913162696	2.193	n/a	stim	poldrack-single-stim	s640	False	1
71.604	1.485	73.089	-14.643842236029736	end_round	1.485	columbia_card_task_fmri	17.0	0.6	71.0	-65.0	0.4	9.0	5.0	2.0	7.457324719059812	1.485	4.0	stim	poldrack-single-stim	s640	False	1
73.845	1.5	73.094	n/a	-1.0	2.522	columbia_card_task_fmri	n/a	n/a	-1.0	n/a	n/a	n/a	n/a	n/a	n/a	n/a	n/a	ITI	poldrack-single-stim	s640	False	0
75.619	1.404	77.023	4.256157763970263	draw_card	1.404	columbia_card_task_fmri	14.0	0.9	89.0	-95.0	0.1	10.0	1.0	1.0	-0.010508524710147	1.404	1.0	stim	poldrack-single-stim	s640	False	0
77.776	1.5	77.025	n/a	-1.0	2.59	columbia_card_task_fmri	n/a	n/a	-1.0	n/a	n/a	n/a	n/a	n/a	n/a	n/a	n/a	ITI	poldrack-single-stim	s640	False	0
79.619	1.212	80.831	0.1561577639702636	draw_card	1.212	columbia_card_task_fmri	15.0	0.8	89.0	-65.0	0.2	10.0	1.0	2.0	-0.7100618528359348	1.212	1.0	stim	poldrack-single-stim	s640	False	0
81.586	1.5	80.835	n/a	-1.0	2.454	columbia_card_task_fmri	n/a	n/a	-1.0	n/a	n/a	n/a	n/a	n/a	n/a	n/a	n/a	ITI	poldrack-single-stim	s640	False	0
83.292	2.161	85.453	1.756157763970265	draw_card	2.161	columbia_card_task_fmri	17.0	0.8	89.0	-65.0	0.2	10.0	1.0	2.0	0.0894292199079345	2.161	n/a	stim	poldrack-single-stim	s640	False	1
85.455	2.118	87.573	-0.066064458251956	draw_card	2.118	columbia_card_task_fmri	17.0	0.7777777777777778	89.0	-65.0	0.2222222222222222	10.0	2.0	2.0	1.379314655761959	2.118	2.0	stim	poldrack-single-stim	s640	False	0
88.328	1.5	87.577	n/a	-1.0	2.318	columbia_card_task_fmri	n/a	n/a	-1.0	n/a	n/a	n/a	n/a	n/a	n/a	n/a	n/a	ITI	poldrack-single-stim	s640	False	0
89.898	1.886	91.784	0.3228244306369314	draw_card	1.886	columbia_card_task_fmri	13.0	0.8333333333333334	89.0	-70.0	0.1666666666666666	12.0	1.0	2.0	-1.777067948418157	1.886	n/a	stim	poldrack-single-stim	s640	False	1
91.787	0.954	92.741	-0.93475132693883	draw_card	0.954	columbia_card_task_fmri	13.0	0.8181818181818181	89.0	-70.0	0.1818181818181818	12.0	2.0	2.0	-0.6974176422285723	0.954	n/a	stim	poldrack-single-stim	s640	False	1
92.743	1.907	94.65	-2.4438422360297363	draw_card	1.907	columbia_card_task_fmri	13.0	0.8	89.0	-70.0	0.2	12.0	3.0	2.0	0.4891839452660349	1.907	n/a	stim	poldrack-single-stim	s640	False	1
94.653	1.749	96.402	-4.288286680474181	draw_card	1.749	columbia_card_task_fmri	13.0	0.7777777777777778	89.0	-70.0	0.2222222222222222	12.0	4.0	2.0	1.7948183606210577	1.749	n/a	stim	poldrack-single-stim	s640	False	1
96.405	2.307	98.712	-6.593842236029737	draw_card	2.307	columbia_card_task_fmri	13.0	0.75	89.0	-70.0	0.25	12.0	5.0	2.0	3.227704711829432	2.307	n/a	stim	poldrack-single-stim	s640	False	1
98.715	2.813	101.528	-9.55812795031545	end_round	2.813	columbia_card_task_fmri	13.0	0.7142857142857143	71.0	-70.0	0.2857142857142857	12.0	6.0	2.0	4.782457523781758	2.813	5.0	stim	poldrack-single-stim	s640	False	1
102.281	1.5	101.53	n/a	-1.0	2.25	columbia_card_task_fmri	n/a	n/a	-1.0	n/a	n/a	n/a	n/a	n/a	n/a	n/a	n/a	ITI	poldrack-single-stim	s640	False	0
103.784	1.231	105.015	0.3228244306369314	draw_card	1.231	columbia_card_task_fmri	15.0	0.8333333333333334	89.0	-80.0	0.1666666666666666	12.0	1.0	2.0	2.692341225696694	1.231	1.0	stim	poldrack-single-stim	s640	False	0
105.772	1.5	105.021	n/a	-1.0	2.658	columbia_card_task_fmri	n/a	n/a	-1.0	n/a	n/a	n/a	n/a	n/a	n/a	n/a	n/a	ITI	poldrack-single-stim	s640	False	0
107.683	1.662	109.345	-0.6438422360297353	draw_card	1.662	columbia_card_task_fmri	14.0	0.8	89.0	-65.0	0.2	15.0	1.0	3.0	-1.1097977355634754	1.662	n/a	stim	poldrack-single-stim	s640	False	1
109.347	1.31	110.657	-1.7724136646011637	draw_card	1.31	columbia_card_task_fmri	14.0	0.7857142857142857	89.0	-65.0	0.2142857142857142	15.0	2.0	3.0	-0.2945831031932613	1.31	n/a	stim	poldrack-single-stim	s640	False	1
110.66	1.427	112.087	-3.0746114667989684	draw_card	1.427	columbia_card_task_fmri	14.0	0.7692307692307692	89.0	-65.0	0.2307692307692307	15.0	3.0	3.0	0.5738112714977177	1.427	n/a	stim	poldrack-single-stim	s640	False	1
112.089	1.465	113.554	-4.593842236029737	draw_card	1.465	columbia_card_task_fmri	14.0	0.75	89.0	-65.0	0.25	15.0	4.0	3.0	1.4965947190289128	1.465	n/a	stim	poldrack-single-stim	s640	False	1
113.556	1.455	115.011	-6.389296781484282	draw_card	1.455	columbia_card_task_fmri	14.0	0.7272727272727273	89.0	-65.0	0.2727272727272727	15.0	5.0	3.0	2.4716299137242714	1.455	n/a	stim	poldrack-single-stim	s640	False	1
115.013	1.374	116.387	-8.543842236029738	draw_card	1.374	columbia_card_task_fmri	14.0	0.7	89.0	-65.0	0.3	15.0	6.0	3.0	3.489863814824794	1.374	n/a	stim	poldrack-single-stim	s640	False	1
116.39	1.764	118.154	-11.177175569363069	end_round	1.764	columbia_card_task_fmri	14.0	0.6666666666666667	71.0	-65.0	0.3333333333333333	15.0	7.0	3.0	4.527958478398382	1.764	6.0	stim	poldrack-single-stim	s640	False	1
118.91	1.5	118.159	n/a	-1.0	2.454	columbia_card_task_fmri	n/a	n/a	-1.0	n/a	n/a	n/a	n/a	n/a	n/a	n/a	n/a	ITI	poldrack-single-stim	s640	False	0
120.617	0.367	120.984	-0.7188422360297364	draw_card	0.367	columbia_card_task_fmri	1.0	0.9375	89.0	-45.0	0.0625	16.0	1.0	1.0	-21.536251367022523	0.367	n/a	stim	poldrack-single-stim	s640	False	1
120.986	5.613	126.599	-0.9105089026964028	end_round	5.613	columbia_card_task_fmri	1.0	0.9333333333333332	71.0	-45.0	0.0666666666666666	16.0	2.0	1.0	-21.1984250903185	5.613	1.0	stim	poldrack-single-stim	s640	False	1
127.355	1.5	126.604	n/a	-1.0	2.386	columbia_card_task_fmri	n/a	n/a	-1.0	n/a	n/a	n/a	n/a	n/a	n/a	n/a	n/a	ITI	poldrack-single-stim	s640	False	0
128.995	0.974	129.969	0.2186577639702636	draw_card	0.974	columbia_card_task_fmri	15.0	0.8125	89.0	-70.0	0.1875	16.0	1.0	3.0	0.4657500267975507	0.974	n/a	stim	poldrack-single-stim	s640	False	1
129.972	0.54	130.512	-0.8438422360297364	draw_card	0.54	columbia_card_task_fmri	15.0	0.8	89.0	-70.0	0.2	16.0	2.0	3.0	1.288710694184367	0.54	2.0	stim	poldrack-single-stim	s640	False	0
131.269	1.5	130.518	n/a	-1.0	2.59	columbia_card_task_fmri	n/a	n/a	-1.0	n/a	n/a	n/a	n/a	n/a	n/a	n/a	n/a	ITI	poldrack-single-stim	s640	False	0
133.111	2.788	135.899	7.156157763970263	draw_card	2.788	columbia_card_task_fmri	30.0	0.7	89.0	-50.0	0.3	10.0	1.0	3.0	3.947890789493535	2.788	n/a	stim	poldrack-single-stim	s640	False	1
135.902	0.53	136.432	4.489491097303603	draw_card	0.53	columbia_card_task_fmri	30.0	0.6666666666666667	89.0	-50.0	0.3333333333333333	10.0	2.0	3.0	4.999138826092256	0.53	n/a	stim	poldrack-single-stim	s640	False	1
136.435	0.864	137.299	1.1561577639702636	draw_card	0.864	columbia_card_task_fmri	30.0	0.625	89.0	-50.0	0.375	10.0	3.0	3.0	6.016145361164753	0.864	n/a	stim	poldrack-single-stim	s640	False	1
137.302	1.251	138.553	-3.1295565217440213	end_round	1.251	columbia_card_task_fmri	30.0	0.5714285714285714	71.0	-50.0	0.4285714285714285	10.0	4.0	3.0	6.87567006773331	1.251	3.0	stim	poldrack-single-stim	s640	False	1
139.309	1.5	138.558	n/a	-1.0	2.318	columbia_card_task_fmri	n/a	n/a	-1.0	n/a	n/a	n/a	n/a	n/a	n/a	n/a	n/a	ITI	poldrack-single-stim	s640	False	0
140.879	1.186	142.065	6.556157763970264	draw_card	1.186	columbia_card_task_fmri	17.0	0.8666666666666667	89.0	-70.0	0.1333333333333333	15.0	1.0	2.0	-3.1340374235577286	1.186	1.0	stim	poldrack-single-stim	s640	False	0
142.819	1.5	142.068	n/a	-1.0	2.59	columbia_card_task_fmri	n/a	n/a	-1.0	n/a	n/a	n/a	n/a	n/a	n/a	n/a	n/a	ITI	poldrack-single-stim	s640	False	0
144.662	1.896	146.558	1.7811577639702636	draw_card	1.896	columbia_card_task_fmri	7.0	0.9375	89.0	-95.0	0.0625	16.0	1.0	1.0	-8.013617596675822	1.896	n/a	stim	poldrack-single-stim	s640	False	1
146.56	1.073	147.633	1.3561577639702638	draw_card	1.073	columbia_card_task_fmri	7.0	0.9333333333333332	89.0	-95.0	0.0666666666666666	16.0	2.0	1.0	-7.261416048831574	1.073	n/a	stim	poldrack-single-stim	s640	False	1
147.636	1.048	148.684	0.870443478255978	draw_card	1.048	columbia_card_task_fmri	7.0	0.9285714285714286	89.0	-95.0	0.0714285714285714	16.0	3.0	1.0	-6.436494328830385	1.048	3.0	stim	poldrack-single-stim	s640	False	0
149.437	1.5	148.686	n/a	-1.0	2.386	columbia_card_task_fmri	n/a	n/a	-1.0	n/a	n/a	n/a	n/a	n/a	n/a	n/a	n/a	ITI	poldrack-single-stim	s640	False	0
151.076	3.119	154.195	3.343657763970264	end_round	3.119	columbia_card_task_fmri	9.0	0.9375	71.0	-100.0	0.0625	16.0	1.0	1.0	-6.320923108955547	3.119	0.0	stim	poldrack-single-stim	s640	False	1
154.954	1.5	154.203	n/a	-1.0	2.318	columbia_card_task_fmri	n/a	n/a	-1.0	n/a	n/a	n/a	n/a	n/a	n/a	n/a	n/a	ITI	poldrack-single-stim	s640	False	0
156.526	1.038	157.564	4.281157763970263	draw_card	1.038	columbia_card_task_fmri	15.0	0.875	89.0	-80.0	0.125	16.0	1.0	2.0	-1.2913787201793951	1.038	n/a	stim	poldrack-single-stim	s640	False	1
157.565	0.981	158.546	3.4894910973035973	draw_card	0.981	columbia_card_task_fmri	15.0	0.8666666666666667	89.0	-80.0	0.1333333333333333	16.0	2.0	2.0	-0.416461424250798	0.981	n/a	stim	poldrack-single-stim	s640	False	1
158.55	2.33	160.88	2.584729192541694	draw_card	2.33	columbia_card_task_fmri	15.0	0.8571428571428572	89.0	-80.0	0.1428571428571428	16.0	3.0	2.0	0.5322329645541899	2.33	n/a	stim	poldrack-single-stim	s640	False	1
160.883	1.335	162.218	1.5407731485856468	draw_card	1.335	columbia_card_task_fmri	15.0	0.8461538461538461	89.0	-80.0	0.1538461538461538	16.0	4.0	2.0	1.5646676460723796	1.335	n/a	stim	poldrack-single-stim	s640	False	1
162.22	1.135	163.355	0.3228244306369314	end_round	1.135	columbia_card_task_fmri	15.0	0.8333333333333334	71.0	-80.0	0.1666666666666666	16.0	5.0	2.0	2.692341225696694	1.135	4.0	stim	poldrack-single-stim	s640	False	1
164.114	1.5	163.363	n/a	-1.0	2.318	columbia_card_task_fmri	n/a	n/a	-1.0	n/a	n/a	n/a	n/a	n/a	n/a	n/a	n/a	ITI	poldrack-single-stim	s640	False	0
165.685	1.182	166.867	6.406157763970263	draw_card	1.182	columbia_card_task_fmri	16.0	0.875	89.0	-70.0	0.125	16.0	1.0	2.0	-4.265625240418999	1.182	n/a	stim	poldrack-single-stim	s640	False	1
166.87	0.583	167.453	5.689491097303597	draw_card	0.583	columbia_card_task_fmri	16.0	0.8666666666666667	89.0	-70.0	0.1333333333333333	16.0	2.0	2.0	-3.4737095828625364	0.583	n/a	stim	poldrack-single-stim	s640	False	1
167.456	0.752	168.208	4.870443478255979	draw_card	0.752	columbia_card_task_fmri	16.0	0.8571428571428572	89.0	-70.0	0.1428571428571428	16.0	3.0	2.0	-2.6150090970373903	0.752	n/a	stim	poldrack-single-stim	s640	False	1
168.211	0.583	168.794	3.925388533201032	draw_card	0.583	columbia_card_task_fmri	16.0	0.8461538461538461	89.0	-70.0	0.1538461538461538	16.0	4.0	2.0	-1.680504598108179	0.583	n/a	stim	poldrack-single-stim	s640	False	1
168.797	1.775	170.572	2.8228244306369312	end_round	1.775	columbia_card_task_fmri	16.0	0.8333333333333334	71.0	-70.0	0.1666666666666666	16.0	5.0	2.0	-0.6597869269015035	1.775	4.0	stim	poldrack-single-stim	s640	False	1
171.329	1.5	170.578	n/a	-1.0	2.318	columbia_card_task_fmri	n/a	n/a	-1.0	n/a	n/a	n/a	n/a	n/a	n/a	n/a	n/a	ITI	poldrack-single-stim	s640	False	0
172.9	1.777	174.677	7.718657763970263	draw_card	1.777	columbia_card_task_fmri	30.0	0.6875	89.0	-45.0	0.3125	16.0	1.0	5.0	2.051709778189569	1.777	n/a	stim	poldrack-single-stim	s640	False	1
174.681	0.4	175.081	6.156157763970267	draw_card	0.4	columbia_card_task_fmri	30.0	0.6666666666666667	89.0	-45.0	0.3333333333333333	16.0	2.0	5.0	2.643296821022318	0.4	n/a	stim	poldrack-single-stim	s640	False	1
175.086	1.353	176.439	4.370443478255975	draw_card	1.353	columbia_card_task_fmri	30.0	0.6428571428571428	89.0	-45.0	0.3571428571428571	16.0	3.0	5.0	3.22445891519304	1.353	n/a	stim	poldrack-single-stim	s640	False	1
176.442	0.615	177.057	2.3100039178164167	draw_card	0.615	columbia_card_task_fmri	30.0	0.6153846153846154	89.0	-45.0	0.3846153846153846	16.0	4.0	5.0	3.7751906518798535	0.615	4.0	stim	poldrack-single-stim	s640	False	0
177.814	1.5	177.063	n/a	-1.0	2.386	columbia_card_task_fmri	n/a	n/a	-1.0	n/a	n/a	n/a	n/a	n/a	n/a	n/a	n/a	ITI	poldrack-single-stim	s640	False	0
179.453	2.461	181.914	-0.5105089026964025	draw_card	2.461	columbia_card_task_fmri	13.0	0.8333333333333334	89.0	-75.0	0.1666666666666666	6.0	1.0	1.0	0.0850955816363665	2.461	n/a	stim	poldrack-single-stim	s640	False	1
181.916	0.547	182.463	-3.4438422360297363	draw_card	0.547	columbia_card_task_fmri	13.0	0.8	89.0	-75.0	0.2	6.0	2.0	1.0	2.4880411178214032	0.547	n/a	stim	poldrack-single-stim	s640	False	1
182.466	2.293	184.759	-7.843842236029737	draw_card	2.293	columbia_card_task_fmri	13.0	0.75	89.0	-75.0	0.25	6.0	3.0	1.0	5.391712389660697	2.293	3.0	stim	poldrack-single-stim	s640	False	0
185.516	1.5	184.765	n/a	-1.0	2.25	columbia_card_task_fmri	n/a	n/a	-1.0	n/a	n/a	n/a	n/a	n/a	n/a	n/a	n/a	ITI	poldrack-single-stim	s640	False	0
187.019	0.622	187.641	1.1561577639702654	draw_card	0.622	columbia_card_task_fmri	14.0	0.8333333333333334	89.0	-70.0	0.1666666666666666	6.0	1.0	1.0	-1.404646911093483	0.622	n/a	stim	poldrack-single-stim	s640	False	1
187.645	0.435	188.08	-1.6438422360297351	draw_card	0.435	columbia_card_task_fmri	14.0	0.8	89.0	-70.0	0.2	6.0	2.0	1.0	0.888944505253491	0.435	n/a	stim	poldrack-single-stim	s640	False	1
188.082	0.824	188.906	-5.843842236029737	draw_card	0.824	columbia_card_task_fmri	14.0	0.75	89.0	-70.0	0.25	6.0	3.0	1.0	3.660496199384383	0.824	n/a	stim	poldrack-single-stim	s640	False	1
188.91	0.694	189.604	-12.843842236029737	end_round	0.694	columbia_card_task_fmri	14.0	0.6666666666666667	71.0	-70.0	0.3333333333333333	6.0	4.0	1.0	6.883913556029036	0.694	3.0	stim	poldrack-single-stim	s640	False	1
190.363	1.5	189.612	n/a	-1.0	2.386	columbia_card_task_fmri	n/a	n/a	-1.0	n/a	n/a	n/a	n/a	n/a	n/a	n/a	n/a	ITI	poldrack-single-stim	s640	False	0
192.003	1.116	193.119	1.1561577639702654	draw_card	1.116	columbia_card_task_fmri	16.0	0.8333333333333334	89.0	-80.0	0.1666666666666666	6.0	1.0	1.0	3.064822735753822	1.116	n/a	stim	poldrack-single-stim	s640	False	1
193.123	0.395	193.518	-2.043842236029736	draw_card	0.395	columbia_card_task_fmri	16.0	0.8	89.0	-80.0	0.2	6.0	2.0	1.0	5.6864600244520105	0.395	n/a	stim	poldrack-single-stim	s640	False	1
193.521	1.245	194.766	-6.843842236029737	end_round	1.245	columbia_card_task_fmri	16.0	0.75	71.0	-80.0	0.25	6.0	3.0	1.0	8.854353294151082	1.245	2.0	stim	poldrack-single-stim	s640	False	1
195.522	1.5	194.771	n/a	-1.0	2.59	columbia_card_task_fmri	n/a	n/a	-1.0	n/a	n/a	n/a	n/a	n/a	n/a	n/a	n/a	ITI	poldrack-single-stim	s640	False	0
197.365	0.338	197.703	3.656157763970265	draw_card	0.338	columbia_card_task_fmri	17.0	0.8333333333333334	89.0	-70.0	0.1666666666666666	6.0	1.0	1.0	-0.2873483912125039	0.338	1.0	stim	poldrack-single-stim	s640	False	0
198.46	1.5	197.709	n/a	-1.0	2.658	columbia_card_task_fmri	n/a	n/a	-1.0	n/a	n/a	n/a	n/a	n/a	n/a	n/a	n/a	ITI	poldrack-single-stim	s640	False	0
200.372	0.444	200.816	3.656157763970264	draw_card	0.444	columbia_card_task_fmri	25.0	0.75	89.0	-65.0	0.25	8.0	1.0	2.0	6.257348286450423	0.444	n/a	stim	poldrack-single-stim	s640	False	1
200.82	0.339	201.159	0.4418720496845518	draw_card	0.339	columbia_card_task_fmri	25.0	0.7142857142857143	89.0	-65.0	0.2857142857142857	8.0	2.0	2.0	7.943349725277429	0.339	2.0	stim	poldrack-single-stim	s640	False	0
201.917	1.5	201.166	n/a	-1.0	2.386	columbia_card_task_fmri	n/a	n/a	-1.0	n/a	n/a	n/a	n/a	n/a	n/a	n/a	n/a	ITI	poldrack-single-stim	s640	False	0
203.558	0.523	204.081	3.656157763970264	draw_card	0.523	columbia_card_task_fmri	30.0	0.75	89.0	-80.0	0.25	8.0	1.0	2.0	14.91448587017632	0.523	n/a	stim	poldrack-single-stim	s640	False	1
204.085	0.364	204.449	-0.2724136646011599	draw_card	0.364	columbia_card_task_fmri	30.0	0.7142857142857143	89.0	-80.0	0.2857142857142857	8.0	2.0	2.0	16.975441455182008	0.364	n/a	stim	poldrack-single-stim	s640	False	1
204.452	0.571	205.023	-5.510508902696397	draw_card	0.571	columbia_card_task_fmri	30.0	0.6666666666666667	89.0	-80.0	0.3333333333333333	8.0	3.0	2.0	19.136443651695693	0.571	n/a	stim	poldrack-single-stim	s640	False	1
205.026	1.18	206.206	-12.843842236029737	end_round	1.18	columbia_card_task_fmri	30.0	0.6	71.0	-80.0	0.4	8.0	4.0	2.0	21.17023432814142	1.18	3.0	stim	poldrack-single-stim	s640	False	1
206.964	1.5	206.213	n/a	-1.0	2.386	columbia_card_task_fmri	n/a	n/a	-1.0	n/a	n/a	n/a	n/a	n/a	n/a	n/a	n/a	ITI	poldrack-single-stim	s640	False	0
208.604	0.333	208.937	3.3561577639702644	draw_card	0.333	columbia_card_task_fmri	13.0	0.9	89.0	-95.0	0.1	10.0	1.0	1.0	-0.3103194549932979	0.333	n/a	stim	poldrack-single-stim	s640	False	1
208.941	0.38	209.321	2.156157763970264	draw_card	0.38	columbia_card_task_fmri	13.0	0.8888888888888888	89.0	-95.0	0.1111111111111111	10.0	2.0	1.0	1.2298702593405435	0.38	n/a	stim	poldrack-single-stim	s640	False	1
209.325	0.567	209.892	0.6561577639702636	draw_card	0.567	columbia_card_task_fmri	13.0	0.875	89.0	-95.0	0.125	10.0	3.0	1.0	3.0054088615181485	0.567	3.0	stim	poldrack-single-stim	s640	False	0
210.645	1.5	209.894	n/a	-1.0	2.25	columbia_card_task_fmri	n/a	n/a	-1.0	n/a	n/a	n/a	n/a	n/a	n/a	n/a	n/a	ITI	poldrack-single-stim	s640	False	0
212.15	0.554	212.704	4.756157763970263	draw_card	0.554	columbia_card_task_fmri	14.0	0.9	89.0	-90.0	0.1	10.0	1.0	1.0	-1.50952685293176	0.554	1.0	stim	poldrack-single-stim	s640	False	0
213.462	1.5	212.711	n/a	-1.0	2.318	columbia_card_task_fmri	n/a	n/a	-1.0	n/a	n/a	n/a	n/a	n/a	n/a	n/a	n/a	ITI	poldrack-single-stim	s640	False	0
215.034	0.439	215.473	-0.0438422360297356	draw_card	0.439	columbia_card_task_fmri	16.0	0.8	89.0	-70.0	0.2	10.0	1.0	2.0	1.6884823159256823	0.439	n/a	stim	poldrack-single-stim	s640	False	1
215.476	0.5	215.976	-1.9549533471408471	draw_card	0.5	columbia_card_task_fmri	16.0	0.7777777777777778	89.0	-70.0	0.2222222222222222	10.0	2.0	2.0	3.0413623795673104	0.5	n/a	stim	poldrack-single-stim	s640	False	1
215.98	1.465	217.445	-4.343842236029737	draw_card	1.465	columbia_card_task_fmri	16.0	0.75	89.0	-70.0	0.25	10.0	3.0	2.0	4.526094596682576	1.465	n/a	stim	poldrack-single-stim	s640	False	1
217.448	1.238	218.686	-7.415270807458308	end_round	1.238	columbia_card_task_fmri	16.0	0.7142857142857143	71.0	-70.0	0.2857142857142857	10.0	4.0	2.0	6.137098011298207	1.238	3.0	stim	poldrack-single-stim	s640	False	1
219.445	1.5	218.694	n/a	-1.0	2.25	columbia_card_task_fmri	n/a	n/a	-1.0	n/a	n/a	n/a	n/a	n/a	n/a	n/a	n/a	ITI	poldrack-single-stim	s640	False	0
220.948	1.321	222.269	-0.7605089026964025	end_round	1.321	columbia_card_task_fmri	7.0	0.9166666666666666	71.0	-100.0	0.0833333333333333	12.0	1.0	1.0	-3.1351120674951574	1.321	0.0	stim	poldrack-single-stim	s640	False	1
223.026	1.5	222.275	n/a	-1.0	2.25	columbia_card_task_fmri	n/a	n/a	-1.0	n/a	n/a	n/a	n/a	n/a	n/a	n/a	n/a	ITI	poldrack-single-stim	s640	False	0
224.53	0.92	225.45	-0.5105089026964007	draw_card	0.92	columbia_card_task_fmri	14.0	0.8333333333333334	89.0	-80.0	0.1666666666666666	12.0	1.0	2.0	2.31986389282077	0.92	n/a	stim	poldrack-single-stim	s640	False	1
225.454	0.371	225.825	-1.93475132693883	draw_card	0.371	columbia_card_task_fmri	14.0	0.8181818181818181	89.0	-80.0	0.1818181818181818	12.0	2.0	2.0	3.542782029575178	0.371	n/a	stim	poldrack-single-stim	s640	False	1
225.828	0.347	226.175	-3.643842236029736	draw_card	0.347	columbia_card_task_fmri	14.0	0.8	89.0	-80.0	0.2	12.0	3.0	2.0	4.886830085738588	0.347	n/a	stim	poldrack-single-stim	s640	False	1
226.178	1.509	227.687	-5.732731124918626	end_round	1.509	columbia_card_task_fmri	14.0	0.7777777777777778	71.0	-80.0	0.2222222222222222	12.0	4.0	2.0	6.365690287479531	1.509	3.0	stim	poldrack-single-stim	s640	False	1
228.444	1.5	227.693	n/a	-1.0	2.386	columbia_card_task_fmri	n/a	n/a	-1.0	n/a	n/a	n/a	n/a	n/a	n/a	n/a	n/a	ITI	poldrack-single-stim	s640	False	0
230.084	0.877	230.961	1.1561577639702636	draw_card	0.877	columbia_card_task_fmri	15.0	0.8333333333333334	89.0	-75.0	0.1666666666666666	12.0	1.0	2.0	0.8299991147417529	0.877	n/a	stim	poldrack-single-stim	s640	False	1
230.965	1.124	232.089	-0.2074785996661015	draw_card	1.124	columbia_card_task_fmri	15.0	0.8181818181818181	89.0	-75.0	0.1818181818181818	12.0	2.0	2.0	2.000822259191388	1.124	n/a	stim	poldrack-single-stim	s640	False	1
232.092	0.571	232.663	-1.8438422360297364	draw_card	0.571	columbia_card_task_fmri	15.0	0.8	89.0	-75.0	0.2	12.0	3.0	2.0	3.287619513018271	0.571	n/a	stim	poldrack-single-stim	s640	False	1
232.666	0.44	233.106	-3.843842236029735	draw_card	0.44	columbia_card_task_fmri	15.0	0.7777777777777778	89.0	-75.0	0.2222222222222222	12.0	4.0	2.0	4.703491030627866	0.44	n/a	stim	poldrack-single-stim	s640	False	1
233.11	0.842	233.952	-6.343842236029737	end_round	0.842	columbia_card_task_fmri	15.0	0.75	71.0	-75.0	0.25	12.0	5.0	2.0	6.257348286450423	0.842	4.0	stim	poldrack-single-stim	s640	False	1
234.707	1.5	233.956	n/a	-1.0	2.386	columbia_card_task_fmri	n/a	n/a	-1.0	n/a	n/a	n/a	n/a	n/a	n/a	n/a	n/a	ITI	poldrack-single-stim	s640	False	0
236.347	0.808	237.155	0.1561577639702636	draw_card	0.808	columbia_card_task_fmri	15.0	0.8	89.0	-65.0	0.2	15.0	1.0	3.0	-0.7100618528359348	0.808	1.0	stim	poldrack-single-stim	s640	False	0
237.913	1.5	237.162	n/a	-1.0	2.726	columbia_card_task_fmri	n/a	n/a	-1.0	n/a	n/a	n/a	n/a	n/a	n/a	n/a	n/a	ITI	poldrack-single-stim	s640	False	0
239.893	0.951	240.844	-0.5938422360297364	draw_card	0.951	columbia_card_task_fmri	14.0	0.8125	89.0	-70.0	0.1875	16.0	1.0	3.0	0.0756772556442442	0.951	n/a	stim	poldrack-single-stim	s640	False	1
240.848	0.432	241.28	-1.6438422360297351	draw_card	0.432	columbia_card_task_fmri	14.0	0.8	89.0	-70.0	0.2	16.0	2.0	3.0	0.888944505253491	0.432	n/a	stim	poldrack-single-stim	s640	False	1
241.284	0.384	241.668	-2.8438422360297366	draw_card	0.384	columbia_card_task_fmri	14.0	0.7857142857142857	89.0	-70.0	0.2142857142857142	16.0	3.0	3.0	1.7558202483705472	0.384	n/a	stim	poldrack-single-stim	s640	False	1
241.672	0.51	242.182	-4.228457620645122	draw_card	0.51	columbia_card_task_fmri	14.0	0.7692307692307692	89.0	-70.0	0.2307692307692307	16.0	4.0	3.0	2.679242282738372	0.51	4.0	stim	poldrack-single-stim	s640	False	0
242.94	1.5	242.189	n/a	-1.0	2.454	columbia_card_task_fmri	n/a	n/a	-1.0	n/a	n/a	n/a	n/a	n/a	n/a	n/a	n/a	ITI	poldrack-single-stim	s640	False	0
244.648	0.268	244.916	-0.6563422360297364	draw_card	0.268	columbia_card_task_fmri	11.0	0.6875	89.0	-30.0	0.3125	16.0	1.0	5.0	-13.691795933288226	0.268	1.0	stim	poldrack-single-stim	s640	False	0
245.676	1.5	244.925	n/a	-1.0	2.318	columbia_card_task_fmri	n/a	n/a	-1.0	n/a	n/a	n/a	n/a	n/a	n/a	n/a	n/a	ITI	poldrack-single-stim	s640	False	0
247.248	0.438	247.686	4.156157763970263	draw_card	0.438	columbia_card_task_fmri	15.0	0.8666666666666667	89.0	-75.0	0.1333333333333333	15.0	1.0	2.0	-2.1149859874294066	0.438	n/a	stim	poldrack-single-stim	s640	False	1
247.69	0.502	248.192	3.2990149068274075	draw_card	0.502	columbia_card_task_fmri	15.0	0.8571428571428572	89.0	-75.0	0.1428571428571428	15.0	2.0	2.0	-1.2162866937576275	0.502	n/a	stim	poldrack-single-stim	s640	False	1
248.196	0.707	248.903	2.3100039178164167	draw_card	0.707	columbia_card_task_fmri	15.0	0.8461538461538461	89.0	-75.0	0.1538461538461538	15.0	3.0	2.0	-0.2382561126542342	0.707	n/a	stim	poldrack-single-stim	s640	False	1
248.906	1.121	250.027	1.1561577639702636	draw_card	1.121	columbia_card_task_fmri	15.0	0.8333333333333334	89.0	-75.0	0.1666666666666666	15.0	4.0	2.0	0.8299991147417529	1.121	n/a	stim	poldrack-single-stim	s640	False	1
250.031	0.91	250.941	-0.2074785996661015	end_round	0.91	columbia_card_task_fmri	15.0	0.8181818181818181	71.0	-75.0	0.1818181818181818	15.0	5.0	2.0	2.000822259191388	0.91	4.0	stim	poldrack-single-stim	s640	False	1
251.7	1.5	250.949	n/a	-1.0	2.318	columbia_card_task_fmri	n/a	n/a	-1.0	n/a	n/a	n/a	n/a	n/a	n/a	n/a	n/a	ITI	poldrack-single-stim	s640	False	0
253.273	1.213	254.486	5.889491097303598	draw_card	1.213	columbia_card_task_fmri	17.0	0.8666666666666667	89.0	-75.0	0.1333333333333333	15.0	1.0	2.0	-1.435591128712108	1.213	n/a	stim	poldrack-single-stim	s640	False	1
254.489	0.598	255.087	5.013300621113123	draw_card	0.598	columbia_card_task_fmri	17.0	0.8571428571428572	89.0	-75.0	0.1428571428571428	15.0	2.0	2.0	-0.5168933712697168	0.598	n/a	stim	poldrack-single-stim	s640	False	1
255.092	0.544	255.636	4.00231161012411	draw_card	0.544	columbia_card_task_fmri	17.0	0.8461538461538461	89.0	-75.0	0.1538461538461538	15.0	3.0	2.0	0.4828992866346198	0.544	n/a	stim	poldrack-single-stim	s640	False	1
255.64	0.618	256.258	2.8228244306369312	draw_card	0.618	columbia_card_task_fmri	17.0	0.8333333333333334	89.0	-75.0	0.1666666666666666	15.0	4.0	2.0	1.5749223028580062	0.618	n/a	stim	poldrack-single-stim	s640	False	1
256.262	0.54	256.802	1.4288850366975352	draw_card	0.54	columbia_card_task_fmri	17.0	0.8181818181818181	89.0	-75.0	0.1818181818181818	15.0	5.0	2.0	2.7717932529714275	0.54	n/a	stim	poldrack-single-stim	s640	False	1
256.807	1.089	257.896	-0.2438422360297349	end_round	1.089	columbia_card_task_fmri	17.0	0.8	71.0	-75.0	0.2	15.0	6.0	2.0	4.087216224995579	1.089	5.0	stim	poldrack-single-stim	s640	False	1
258.654	1.5	257.903	n/a	-1.0	2.59	columbia_card_task_fmri	n/a	n/a	-1.0	n/a	n/a	n/a	n/a	n/a	n/a	n/a	n/a	ITI	poldrack-single-stim	s640	False	0
260.499	1.416	261.915	1.4686577639702636	draw_card	1.416	columbia_card_task_fmri	2.0	0.9375	89.0	-25.0	0.0625	16.0	1.0	1.0	-26.093807232639044	1.416	n/a	stim	poldrack-single-stim	s640	False	1
261.919	0.379	262.298	1.3561577639702636	draw_card	0.379	columbia_card_task_fmri	2.0	0.9333333333333332	89.0	-25.0	0.0666666666666666	16.0	2.0	1.0	-25.89744256220017	0.379	n/a	stim	poldrack-single-stim	s640	False	1
262.302	0.744	263.046	1.2275863353988352	draw_card	0.744	columbia_card_task_fmri	2.0	0.9285714285714286	89.0	-25.0	0.0714285714285714	16.0	3.0	1.0	-25.681916832098658	0.744	n/a	stim	poldrack-single-stim	s640	False	1
263.051	0.754	263.805	1.0792346870471867	draw_card	0.754	columbia_card_task_fmri	2.0	0.9230769230769232	89.0	-25.0	0.0769230769230769	16.0	4.0	1.0	-25.44396532300452	0.754	n/a	stim	poldrack-single-stim	s640	False	1
263.808	1.059	264.867	0.9061577639702638	end_round	1.059	columbia_card_task_fmri	2.0	0.9166666666666666	71.0	-25.0	0.0833333333333333	16.0	5.0	1.0	-25.17950399023399	1.059	4.0	stim	poldrack-single-stim	s640	False	1
265.623	1.5	264.872	n/a	-1.0	2.726	columbia_card_task_fmri	n/a	n/a	-1.0	n/a	n/a	n/a	n/a	n/a	n/a	n/a	n/a	ITI	poldrack-single-stim	s640	False	0
267.604	1.487	269.091	3.656157763970264	draw_card	1.487	columbia_card_task_fmri	9.0	0.9375	89.0	-95.0	0.0625	16.0	1.0	1.0	-7.530014405263284	1.487	n/a	stim	poldrack-single-stim	s640	False	1
269.096	0.486	269.582	3.2228244306369307	draw_card	0.486	columbia_card_task_fmri	9.0	0.9333333333333332	89.0	-95.0	0.0666666666666666	16.0	2.0	1.0	-6.763032790003443	0.486	n/a	stim	poldrack-single-stim	s640	False	1
269.587	0.086	269.673	2.7275863353988354	draw_card	0.086	columbia_card_task_fmri	9.0	0.9285714285714286	89.0	-95.0	0.0714285714285714	16.0	3.0	1.0	-5.9219041585806025	0.086	n/a	stim	poldrack-single-stim	s640	False	1
269.676	0.905	270.581	2.156157763970264	end_round	0.905	columbia_card_task_fmri	9.0	0.9230769230769232	71.0	-95.0	0.0769230769230769	16.0	4.0	1.0	-4.994021537316161	0.905	3.0	stim	poldrack-single-stim	s640	False	1
271.335	1.5	270.584	n/a	-1.0	2.522	columbia_card_task_fmri	n/a	n/a	-1.0	n/a	n/a	n/a	n/a	n/a	n/a	n/a	n/a	ITI	poldrack-single-stim	s640	False	0
273.112	1.221	274.333	5.218657763970263	draw_card	1.221	columbia_card_task_fmri	11.0	0.9375	89.0	-100.0	0.0625	16.0	1.0	1.0	-5.837255960309353	1.221	n/a	stim	poldrack-single-stim	s640	False	1
274.336	0.388	274.724	4.756157763970264	draw_card	0.388	columbia_card_task_fmri	11.0	0.9333333333333332	89.0	-100.0	0.0666666666666666	16.0	2.0	1.0	-5.018548442175561	0.388	n/a	stim	poldrack-single-stim	s640	False	1
274.727	0.41	275.137	4.227586335398836	draw_card	0.41	columbia_card_task_fmri	11.0	0.9285714285714286	89.0	-100.0	0.0714285714285714	16.0	3.0	1.0	-4.1207000892919154	0.41	n/a	stim	poldrack-single-stim	s640	False	1
275.142	0.402	275.544	3.617696225508726	draw_card	0.402	columbia_card_task_fmri	11.0	0.9230769230769232	89.0	-100.0	0.0769230769230769	16.0	4.0	1.0	-3.1302550849957	0.402	n/a	stim	poldrack-single-stim	s640	False	1
275.548	0.451	275.999	2.906157763970264	draw_card	0.451	columbia_card_task_fmri	11.0	0.9166666666666666	89.0	-100.0	0.0833333333333333	16.0	5.0	1.0	-2.0303839800812185	0.451	n/a	stim	poldrack-single-stim	s640	False	1
276.003	1.163	277.166	2.065248673061172	draw_card	1.163	columbia_card_task_fmri	11.0	0.9090909090909092	89.0	-100.0	0.0909090909090909	16.0	6.0	1.0	-0.7997467823454834	1.163	n/a	stim	poldrack-single-stim	s640	False	1
277.17	1.017	278.187	1.056157763970264	end_round	1.017	columbia_card_task_fmri	11.0	0.9	71.0	-100.0	0.1	16.0	7.0	1.0	0.5891235464696436	1.017	6.0	stim	poldrack-single-stim	s640	False	1
278.942	1.5	278.191	n/a	-1.0	3.134	columbia_card_task_fmri	n/a	n/a	-1.0	n/a	n/a	n/a	n/a	n/a	n/a	n/a	n/a	ITI	poldrack-single-stim	s640	False	0
281.331	0.622	281.953	5.781157763970263	draw_card	0.622	columbia_card_task_fmri	16.0	0.875	89.0	-75.0	0.125	16.0	1.0	2.0	-2.613320305086408	0.622	n/a	stim	poldrack-single-stim	s640	False	1
281.958	0.358	282.316	5.0228244306369305	draw_card	0.358	columbia_card_task_fmri	16.0	0.8666666666666667	89.0	-75.0	0.1333333333333333	16.0	2.0	2.0	-1.775291161990186	0.358	n/a	stim	poldrack-single-stim	s640	False	1
282.32	0.338	282.658	4.156157763970265	draw_card	0.338	columbia_card_task_fmri	16.0	0.8571428571428572	89.0	-75.0	0.1428571428571428	16.0	3.0	2.0	-0.8665925623739668	0.338	3.0	stim	poldrack-single-stim	s640	False	0
283.417	1.5	282.666	n/a	-1.0	2.386	columbia_card_task_fmri	n/a	n/a	-1.0	n/a	n/a	n/a	n/a	n/a	n/a	n/a	n/a	ITI	poldrack-single-stim	s640	False	0
285.058	1.221	286.279	6.031157763970263	draw_card	1.221	columbia_card_task_fmri	17.0	0.875	89.0	-80.0	0.125	16.0	1.0	2.0	-0.6303790678665564	1.221	n/a	stim	poldrack-single-stim	s640	False	1
286.284	0.291	286.575	5.222824430636932	draw_card	0.291	columbia_card_task_fmri	17.0	0.8666666666666667	89.0	-80.0	0.1333333333333333	16.0	2.0	2.0	0.2629815251741902	0.291	2.0	stim	poldrack-single-stim	s640	False	0
287.334	1.5	286.583	n/a	-1.0	2.386	columbia_card_task_fmri	n/a	n/a	-1.0	n/a	n/a	n/a	n/a	n/a	n/a	n/a	n/a	ITI	poldrack-single-stim	s640	False	0
299.986	1.528	301.514	0.3228244306369314	draw_card	1.528	columbia_card_task_fmri	13.0	0.8333333333333334	89.0	-70.0	0.1666666666666666	6.0	1.0	1.0	-1.777067948418157	1.528	n/a	stim	poldrack-single-stim	s640	False	1
301.517	0.346	301.863	-2.4438422360297363	draw_card	0.346	columbia_card_task_fmri	13.0	0.8	89.0	-70.0	0.2	6.0	2.0	1.0	0.4891839452660349	0.346	n/a	stim	poldrack-single-stim	s640	False	1
301.868	0.566	302.434	-6.593842236029737	draw_card	0.566	columbia_card_task_fmri	13.0	0.75	89.0	-70.0	0.25	6.0	3.0	1.0	3.227704711829432	0.566	3.0	stim	poldrack-single-stim	s640	False	0
303.19	1.5	302.439	n/a	-1.0	2.318	columbia_card_task_fmri	n/a	n/a	-1.0	n/a	n/a	n/a	n/a	n/a	n/a	n/a	n/a	ITI	poldrack-single-stim	s640	False	0
304.763	1.191	305.954	0.3228244306369314	draw_card	1.191	columbia_card_task_fmri	15.0	0.8333333333333334	89.0	-80.0	0.1666666666666666	6.0	1.0	1.0	2.692341225696694	1.191	n/a	stim	poldrack-single-stim	s640	False	1
305.958	0.365	306.323	-2.8438422360297366	draw_card	0.365	columbia_card_task_fmri	15.0	0.8	89.0	-80.0	0.2	6.0	2.0	1.0	5.286643108755499	0.365	n/a	stim	poldrack-single-stim	s640	False	1
306.327	1.215	307.542	-7.593842236029737	draw_card	1.215	columbia_card_task_fmri	15.0	0.75	89.0	-80.0	0.25	6.0	3.0	1.0	8.421509735324214	1.215	3.0	stim	poldrack-single-stim	s640	False	0
308.299	1.5	307.548	n/a	-1.0	2.318	columbia_card_task_fmri	n/a	n/a	-1.0	n/a	n/a	n/a	n/a	n/a	n/a	n/a	n/a	ITI	poldrack-single-stim	s640	False	0
309.871	0.368	310.239	1.9894910973035973	draw_card	0.368	columbia_card_task_fmri	16.0	0.8333333333333334	89.0	-75.0	0.1666666666666666	6.0	1.0	1.0	1.2024583328246123	0.368	n/a	stim	poldrack-single-stim	s640	False	1
310.243	0.294	310.537	-1.0438422360297357	draw_card	0.294	columbia_card_task_fmri	16.0	0.8	89.0	-75.0	0.2	6.0	2.0	1.0	3.687415654813883	0.294	n/a	stim	poldrack-single-stim	s640	False	1
310.542	1.233	311.775	-5.593842236029737	draw_card	1.233	columbia_card_task_fmri	16.0	0.75	89.0	-75.0	0.25	6.0	3.0	1.0	6.690172651085668	1.233	3.0	stim	poldrack-single-stim	s640	False	0
312.533	1.5	311.782	n/a	-1.0	2.862	columbia_card_task_fmri	n/a	n/a	-1.0	n/a	n/a	n/a	n/a	n/a	n/a	n/a	n/a	ITI	poldrack-single-stim	s640	False	0
314.65	0.854	315.504	3.156157763970264	draw_card	0.854	columbia_card_task_fmri	21.0	0.75	89.0	-55.0	0.25	8.0	1.0	2.0	0.1983271572761253	0.854	1.0	stim	poldrack-single-stim	s640	False	0
316.262	1.5	315.511	n/a	-1.0	2.726	columbia_card_task_fmri	n/a	n/a	-1.0	n/a	n/a	n/a	n/a	n/a	n/a	n/a	n/a	ITI	poldrack-single-stim	s640	False	0
318.243	0.609	318.852	4.406157763970263	draw_card	0.609	columbia_card_task_fmri	26.0	0.75	89.0	-65.0	0.25	8.0	1.0	2.0	6.690172651085668	0.609	n/a	stim	poldrack-single-stim	s640	False	1
318.857	0.366	319.223	1.1561577639702671	draw_card	0.366	columbia_card_task_fmri	26.0	0.7142857142857143	89.0	-65.0	0.2857142857142857	8.0	2.0	2.0	8.394923143173969	0.366	2.0	stim	poldrack-single-stim	s640	False	0
319.981	1.5	319.23	n/a	-1.0	2.25	columbia_card_task_fmri	n/a	n/a	-1.0	n/a	n/a	n/a	n/a	n/a	n/a	n/a	n/a	ITI	poldrack-single-stim	s640	False	0
321.486	0.564	322.05	-0.5105089026964025	draw_card	0.564	columbia_card_task_fmri	15.0	0.7777777777777778	89.0	-60.0	0.2222222222222222	9.0	1.0	2.0	-1.529035231848269	0.564	1.0	stim	poldrack-single-stim	s640	False	0
322.806	1.5	322.055	n/a	-1.0	2.318	columbia_card_task_fmri	n/a	n/a	-1.0	n/a	n/a	n/a	n/a	n/a	n/a	n/a	n/a	ITI	poldrack-single-stim	s640	False	0
324.378	0.388	324.766	3.856157763970264	draw_card	0.388	columbia_card_task_fmri	13.0	0.9	89.0	-90.0	0.1	10.0	1.0	1.0	-1.8093190933583152	0.388	n/a	stim	poldrack-single-stim	s640	False	1
324.771	0.374	325.145	2.7117133195258187	draw_card	0.374	columbia_card_task_fmri	13.0	0.8888888888888888	89.0	-90.0	0.1111111111111111	10.0	2.0	1.0	-0.3405231190926017	0.374	2.0	stim	poldrack-single-stim	s640	False	0
325.903	1.5	325.152	n/a	-1.0	2.454	columbia_card_task_fmri	n/a	n/a	-1.0	n/a	n/a	n/a	n/a	n/a	n/a	n/a	n/a	ITI	poldrack-single-stim	s640	False	0
327.613	0.543	328.156	5.156157763970263	draw_card	0.543	columbia_card_task_fmri	15.0	0.9	89.0	-95.0	0.1	10.0	1.0	1.0	0.2893058400139807	0.543	n/a	stim	poldrack-single-stim	s640	False	1
328.161	0.378	328.539	3.93393554174804	draw_card	0.378	columbia_card_task_fmri	15.0	0.8888888888888888	89.0	-95.0	0.1111111111111111	10.0	2.0	1.0	1.858051899461998	0.378	n/a	stim	poldrack-single-stim	s640	False	1
328.543	0.932	329.475	2.406157763970264	draw_card	0.932	columbia_card_task_fmri	15.0	0.875	89.0	-95.0	0.125	10.0	3.0	1.0	3.66650673245573	0.932	n/a	stim	poldrack-single-stim	s640	False	1
329.479	1.862	331.341	0.4418720496845501	end_round	1.862	columbia_card_task_fmri	15.0	0.8571428571428572	71.0	-95.0	0.1428571428571428	10.0	4.0	1.0	5.77840013350243	1.862	3.0	stim	poldrack-single-stim	s640	False	1
332.1	1.5	331.349	n/a	-1.0	2.522	columbia_card_task_fmri	n/a	n/a	-1.0	n/a	n/a	n/a	n/a	n/a	n/a	n/a	n/a	ITI	poldrack-single-stim	s640	False	0
333.879	0.348	334.227	0.9561577639702644	draw_card	0.348	columbia_card_task_fmri	16.0	0.8	89.0	-65.0	0.2	10.0	1.0	2.0	-0.3103194549932979	0.348	n/a	stim	poldrack-single-stim	s640	False	1
334.232	0.411	334.643	-0.8438422360297346	draw_card	0.411	columbia_card_task_fmri	16.0	0.7777777777777778	89.0	-65.0	0.2222222222222222	10.0	2.0	2.0	0.9638167730975056	0.411	n/a	stim	poldrack-single-stim	s640	False	1
334.647	0.753	335.4	-3.0938422360297366	draw_card	0.753	columbia_card_task_fmri	16.0	0.75	89.0	-65.0	0.25	10.0	3.0	2.0	2.3621381098919443	0.753	n/a	stim	poldrack-single-stim	s640	False	1
335.404	2.393	337.797	-5.986699378886877	end_round	2.393	columbia_card_task_fmri	16.0	0.7142857142857143	71.0	-65.0	0.2857142857142857	10.0	4.0	2.0	3.8793894174853207	2.393	3.0	stim	poldrack-single-stim	s640	False	1
338.555	1.5	337.804	n/a	-1.0	2.318	columbia_card_task_fmri	n/a	n/a	-1.0	n/a	n/a	n/a	n/a	n/a	n/a	n/a	n/a	ITI	poldrack-single-stim	s640	False	0
340.126	0.465	340.591	-0.3438422360297364	draw_card	0.465	columbia_card_task_fmri	7.0	0.9166666666666666	89.0	-95.0	0.0833333333333333	12.0	1.0	1.0	-4.515932559666329	0.465	n/a	stim	poldrack-single-stim	s640	False	1
340.596	0.306	340.902	-1.1165695087570098	draw_card	0.306	columbia_card_task_fmri	7.0	0.9090909090909092	89.0	-95.0	0.0909090909090909	12.0	2.0	1.0	-3.3852187895575234	0.306	n/a	stim	poldrack-single-stim	s640	False	1
340.905	2.111	343.016	-2.043842236029737	end_round	2.111	columbia_card_task_fmri	7.0	0.9	71.0	-95.0	0.1	12.0	3.0	1.0	-2.109107264381663	2.111	2.0	stim	poldrack-single-stim	s640	False	1
343.772	1.5	343.021	n/a	-1.0	2.522	columbia_card_task_fmri	n/a	n/a	-1.0	n/a	n/a	n/a	n/a	n/a	n/a	n/a	n/a	ITI	poldrack-single-stim	s640	False	0
345.549	0.874	346.423	0.3228244306369314	draw_card	0.874	columbia_card_task_fmri	14.0	0.8333333333333334	89.0	-75.0	0.1666666666666666	12.0	1.0	2.0	0.4575448085963316	0.874	n/a	stim	poldrack-single-stim	s640	False	1
346.428	0.356	346.784	-1.0256604178479198	draw_card	0.356	columbia_card_task_fmri	14.0	0.8181818181818181	89.0	-75.0	0.1818181818181818	12.0	2.0	2.0	1.6153438050841729	0.356	2.0	stim	poldrack-single-stim	s640	False	0
347.539	1.5	346.788	n/a	-1.0	2.998	columbia_card_task_fmri	n/a	n/a	-1.0	n/a	n/a	n/a	n/a	n/a	n/a	n/a	n/a	ITI	poldrack-single-stim	s640	False	0
349.793	0.258	350.051	1.9894910973035973	draw_card	0.258	columbia_card_task_fmri	15.0	0.8333333333333334	89.0	-70.0	0.1666666666666666	12.0	1.0	2.0	-1.0322198337817667	0.258	n/a	stim	poldrack-single-stim	s640	False	1
350.056	0.38	350.436	0.7016123094248068	draw_card	0.38	columbia_card_task_fmri	15.0	0.8181818181818181	89.0	-70.0	0.1818181818181818	12.0	2.0	2.0	0.0734808025753608	0.38	n/a	stim	poldrack-single-stim	s640	False	1
350.441	0.698	351.139	-0.8438422360297364	draw_card	0.698	columbia_card_task_fmri	15.0	0.8	89.0	-70.0	0.2	12.0	3.0	2.0	1.288710694184367	0.698	n/a	stim	poldrack-single-stim	s640	False	1
351.144	0.09	351.234	-2.732731124918626	draw_card	0.09	columbia_card_task_fmri	15.0	0.7777777777777778	89.0	-70.0	0.2222222222222222	12.0	4.0	2.0	2.62584241586935	0.09	4.0	stim	poldrack-single-stim	s640	False	0
351.993	1.5	351.242	n/a	-1.0	2.318	columbia_card_task_fmri	n/a	n/a	-1.0	n/a	n/a	n/a	n/a	n/a	n/a	n/a	n/a	ITI	poldrack-single-stim	s640	False	0
353.566	0.368	353.934	-0.0438422360297356	draw_card	0.368	columbia_card_task_fmri	16.0	0.8	89.0	-70.0	0.2	15.0	1.0	3.0	1.6884823159256823	0.368	n/a	stim	poldrack-single-stim	s640	False	1
353.939	0.36	354.299	-1.2724136646011652	draw_card	0.36	columbia_card_task_fmri	16.0	0.7857142857142857	89.0	-70.0	0.2142857142857142	15.0	2.0	3.0	2.576021477338749	0.36	n/a	stim	poldrack-single-stim	s640	False	1
354.303	1.094	355.397	-2.6899960821835838	draw_card	1.094	columbia_card_task_fmri	16.0	0.7692307692307692	89.0	-70.0	0.2307692307692307	15.0	3.0	3.0	3.5214535377161624	1.094	n/a	stim	poldrack-single-stim	s640	False	1
355.402	0.59	355.992	-4.343842236029737	draw_card	0.59	columbia_card_task_fmri	16.0	0.75	89.0	-70.0	0.25	15.0	4.0	3.0	4.526094596682576	0.59	4.0	stim	poldrack-single-stim	s640	False	0
356.75	1.5	355.999	n/a	-1.0	2.25	columbia_card_task_fmri	n/a	n/a	-1.0	n/a	n/a	n/a	n/a	n/a	n/a	n/a	n/a	ITI	poldrack-single-stim	s640	False	0
358.255	0.435	358.69	0.3436577639702636	draw_card	0.435	columbia_card_task_fmri	14.0	0.8125	89.0	-65.0	0.1875	16.0	1.0	3.0	-1.874595703025566	0.435	n/a	stim	poldrack-single-stim	s640	False	1
358.694	0.336	359.03	-0.6438422360297353	draw_card	0.336	columbia_card_task_fmri	14.0	0.8	89.0	-65.0	0.2	16.0	2.0	3.0	-1.1097977355634754	0.336	n/a	stim	poldrack-single-stim	s640	False	1
359.035	0.439	359.474	-1.7724136646011637	draw_card	0.439	columbia_card_task_fmri	14.0	0.7857142857142857	89.0	-65.0	0.2142857142857142	16.0	3.0	3.0	-0.2945831031932613	0.439	n/a	stim	poldrack-single-stim	s640	False	1
359.479	1.349	360.828	-3.0746114667989684	draw_card	1.349	columbia_card_task_fmri	14.0	0.7692307692307692	89.0	-65.0	0.2307692307692307	16.0	4.0	3.0	0.5738112714977177	1.349	4.0	stim	poldrack-single-stim	s640	False	0
361.587	1.5	360.836	n/a	-1.0	2.454	columbia_card_task_fmri	n/a	n/a	-1.0	n/a	n/a	n/a	n/a	n/a	n/a	n/a	n/a	ITI	poldrack-single-stim	s640	False	0
363.296	0.295	363.591	0.0936577639702636	draw_card	0.295	columbia_card_task_fmri	16.0	0.8125	89.0	-75.0	0.1875	16.0	1.0	3.0	2.806297147768447	0.295	n/a	stim	poldrack-single-stim	s640	False	1
363.596	0.325	363.921	-1.0438422360297357	draw_card	0.325	columbia_card_task_fmri	16.0	0.8	89.0	-75.0	0.2	16.0	2.0	3.0	3.687415654813883	0.325	n/a	stim	poldrack-single-stim	s640	False	1
363.925	0.595	364.52	-2.343842236029735	draw_card	0.595	columbia_card_task_fmri	16.0	0.7857142857142857	89.0	-75.0	0.2142857142857142	16.0	3.0	3.0	4.626611134130791	0.595	n/a	stim	poldrack-single-stim	s640	False	1
364.525	0.57	365.095	-3.84384223602974	draw_card	0.57	columbia_card_task_fmri	16.0	0.7692307692307692	89.0	-75.0	0.2307692307692307	16.0	4.0	3.0	5.627066006001847	0.57	n/a	stim	poldrack-single-stim	s640	False	1
365.099	2.663	367.762	-5.593842236029737	end_round	2.663	columbia_card_task_fmri	16.0	0.75	71.0	-75.0	0.25	16.0	5.0	3.0	6.690172651085668	2.663	4.0	stim	poldrack-single-stim	s640	False	1
368.52	1.5	367.769	n/a	-1.0	2.318	columbia_card_task_fmri	n/a	n/a	-1.0	n/a	n/a	n/a	n/a	n/a	n/a	n/a	n/a	ITI	poldrack-single-stim	s640	False	0
370.093	1.207	371.3	4.356157763970264	draw_card	1.207	columbia_card_task_fmri	16.0	0.8666666666666667	89.0	-80.0	0.1333333333333333	15.0	1.0	2.0	-0.0767421678620579	1.207	n/a	stim	poldrack-single-stim	s640	False	1
371.305	0.329	371.634	3.441872049684552	draw_card	0.329	columbia_card_task_fmri	16.0	0.8571428571428572	89.0	-80.0	0.1428571428571428	15.0	2.0	2.0	0.881950831923568	0.329	n/a	stim	poldrack-single-stim	s640	False	1
371.639	0.535	372.174	2.3869269947394933	draw_card	0.535	columbia_card_task_fmri	16.0	0.8461538461538461	89.0	-80.0	0.1538461538461538	15.0	3.0	2.0	1.92526591501818	0.535	n/a	stim	poldrack-single-stim	s640	False	1
372.179	0.432	372.611	1.1561577639702654	draw_card	0.432	columbia_card_task_fmri	16.0	0.8333333333333334	89.0	-80.0	0.1666666666666666	15.0	4.0	2.0	3.064822735753822	0.432	n/a	stim	poldrack-single-stim	s640	False	1
372.616	1.121	373.737	-0.2983876905751932	draw_card	1.121	columbia_card_task_fmri	16.0	0.8181818181818181	89.0	-80.0	0.1818181818181818	15.0	5.0	2.0	4.31378747869428	1.121	5.0	stim	poldrack-single-stim	s640	False	0
374.495	1.5	373.744	n/a	-1.0	2.318	columbia_card_task_fmri	n/a	n/a	-1.0	n/a	n/a	n/a	n/a	n/a	n/a	n/a	n/a	ITI	poldrack-single-stim	s640	False	0
376.068	0.361	376.429	5.222824430636932	draw_card	0.361	columbia_card_task_fmri	17.0	0.8666666666666667	89.0	-80.0	0.1333333333333333	15.0	1.0	2.0	0.2629815251741902	0.361	n/a	stim	poldrack-single-stim	s640	False	1
376.434	0.395	376.829	4.299014906827409	draw_card	0.395	columbia_card_task_fmri	17.0	0.8571428571428572	89.0	-80.0	0.1428571428571428	15.0	2.0	2.0	1.231673009704494	0.395	n/a	stim	poldrack-single-stim	s640	False	1
376.834	1.323	378.157	3.23308084089334	draw_card	1.323	columbia_card_task_fmri	17.0	0.8461538461538461	89.0	-80.0	0.1538461538461538	15.0	3.0	2.0	2.285868364905575	1.323	n/a	stim	poldrack-single-stim	s640	False	1
378.161	1.265	379.426	1.9894910973035995	draw_card	1.265	columbia_card_task_fmri	17.0	0.8333333333333334	89.0	-80.0	0.1666666666666666	15.0	4.0	2.0	3.437308293935075	1.265	n/a	stim	poldrack-single-stim	s640	False	1
379.43	1.246	380.676	0.5197941276066251	end_round	1.246	columbia_card_task_fmri	17.0	0.8181818181818181	71.0	-80.0	0.1818181818181818	15.0	5.0	2.0	4.6992961334839976	1.246	4.0	stim	poldrack-single-stim	s640	False	1
381.432	1.5	380.681	n/a	-1.0	2.59	columbia_card_task_fmri	n/a	n/a	-1.0	n/a	n/a	n/a	n/a	n/a	n/a	n/a	n/a	ITI	poldrack-single-stim	s640	False	0
383.278	1.817	385.095	1.1561577639702636	draw_card	1.817	columbia_card_task_fmri	1.0	0.9375	89.0	-15.0	0.0625	16.0	1.0	1.0	-28.68907251516968	1.817	n/a	stim	poldrack-single-stim	s640	False	1
385.1	0.38	385.48	1.089491097303597	draw_card	0.38	columbia_card_task_fmri	1.0	0.9333333333333332	89.0	-15.0	0.0666666666666666	16.0	2.0	1.0	-28.575752708284035	0.38	n/a	stim	poldrack-single-stim	s640	False	1
385.485	0.818	386.303	1.0133006211131208	draw_card	0.818	columbia_card_task_fmri	1.0	0.9285714285714286	89.0	-15.0	0.0714285714285714	16.0	3.0	1.0	-28.451187188187493	0.818	n/a	stim	poldrack-single-stim	s640	False	1
386.309	1.077	387.386	0.9253885332010328	end_round	1.077	columbia_card_task_fmri	1.0	0.9230769230769232	71.0	-15.0	0.0769230769230769	16.0	4.0	1.0	-28.31345125486281	1.077	3.0	stim	poldrack-single-stim	s640	False	1
388.145	1.5	387.394	n/a	-1.0	2.25	columbia_card_task_fmri	n/a	n/a	-1.0	n/a	n/a	n/a	n/a	n/a	n/a	n/a	n/a	ITI	poldrack-single-stim	s640	False	0
389.651	1.607	391.258	4.281157763970263	draw_card	1.607	columbia_card_task_fmri	10.0	0.9375	89.0	-100.0	0.0625	16.0	1.0	1.0	-6.079091603388061	1.607	n/a	stim	poldrack-single-stim	s640	False	1
391.263	0.628	391.891	3.8228244306369294	draw_card	0.628	columbia_card_task_fmri	10.0	0.9333333333333332	89.0	-100.0	0.0666666666666666	16.0	2.0	1.0	-5.267773117118725	0.628	n/a	stim	poldrack-single-stim	s640	False	1
391.897	2.084	393.981	3.2990149068274075	draw_card	2.084	columbia_card_task_fmri	10.0	0.9285714285714286	89.0	-100.0	0.0714285714285714	16.0	3.0	1.0	-4.378027186799592	2.084	n/a	stim	poldrack-single-stim	s640	False	1
393.986	1.047	395.033	2.6946193024318026	draw_card	1.047	columbia_card_task_fmri	10.0	0.9230769230769232	89.0	-100.0	0.0769230769230769	16.0	4.0	1.0	-3.3965192579307377	1.047	n/a	stim	poldrack-single-stim	s640	False	1
395.038	1.145	396.183	1.9894910973035973	end_round	1.145	columbia_card_task_fmri	10.0	0.9166666666666666	71.0	-100.0	0.0833333333333333	16.0	5.0	1.0	-2.3065715425433844	1.145	4.0	stim	poldrack-single-stim	s640	False	1
396.939	1.5	396.188	n/a	-1.0	2.25	columbia_card_task_fmri	n/a	n/a	-1.0	n/a	n/a	n/a	n/a	n/a	n/a	n/a	n/a	ITI	poldrack-single-stim	s640	False	0
398.445	0.776	399.221	4.906157763970263	draw_card	0.776	columbia_card_task_fmri	15.0	0.875	89.0	-75.0	0.125	16.0	1.0	2.0	-2.943792742459806	0.776	n/a	stim	poldrack-single-stim	s640	False	1
399.226	0.436	399.662	4.156157763970263	draw_card	0.436	columbia_card_task_fmri	15.0	0.8666666666666667	89.0	-75.0	0.1333333333333333	16.0	2.0	2.0	-2.1149859874294066	0.436	n/a	stim	poldrack-single-stim	s640	False	1
399.667	0.423	400.09	3.2990149068274075	draw_card	0.423	columbia_card_task_fmri	15.0	0.8571428571428572	89.0	-75.0	0.1428571428571428	16.0	3.0	2.0	-1.2162866937576275	0.423	n/a	stim	poldrack-single-stim	s640	False	1
400.094	0.118	400.212	2.3100039178164167	draw_card	0.118	columbia_card_task_fmri	15.0	0.8461538461538461	89.0	-75.0	0.1538461538461538	16.0	4.0	2.0	-0.2382561126542342	0.118	n/a	stim	poldrack-single-stim	s640	False	1
400.218	1.016	401.234	1.1561577639702636	draw_card	1.016	columbia_card_task_fmri	15.0	0.8333333333333334	89.0	-75.0	0.1666666666666666	16.0	5.0	2.0	0.8299991147417529	1.016	n/a	stim	poldrack-single-stim	s640	False	1
401.239	0.875	402.114	-0.2074785996661015	end_round	0.875	columbia_card_task_fmri	15.0	0.8181818181818181	71.0	-75.0	0.1818181818181818	16.0	6.0	2.0	2.000822259191388	0.875	5.0	stim	poldrack-single-stim	s640	False	1
402.871	1.5	402.12	n/a	-1.0	2.522	columbia_card_task_fmri	n/a	n/a	-1.0	n/a	n/a	n/a	n/a	n/a	n/a	n/a	n/a	ITI	poldrack-single-stim	s640	False	0
404.649	0.637	405.286	5.156157763970263	draw_card	0.637	columbia_card_task_fmri	16.0	0.875	89.0	-80.0	0.125	16.0	1.0	2.0	-0.960881173919617	0.637	n/a	stim	poldrack-single-stim	s640	False	1
405.29	0.447	405.737	4.356157763970264	draw_card	0.447	columbia_card_task_fmri	16.0	0.8666666666666667	89.0	-80.0	0.1333333333333333	16.0	2.0	2.0	-0.0767421678620579	0.447	n/a	stim	poldrack-single-stim	s640	False	1
405.742	0.341	406.083	3.441872049684552	draw_card	0.341	columbia_card_task_fmri	16.0	0.8571428571428572	89.0	-80.0	0.1428571428571428	16.0	3.0	2.0	0.881950831923568	0.341	n/a	stim	poldrack-single-stim	s640	False	1
406.088	0.414	406.502	2.3869269947394933	draw_card	0.414	columbia_card_task_fmri	16.0	0.8461538461538461	89.0	-80.0	0.1538461538461538	16.0	4.0	2.0	1.92526591501818	0.414	n/a	stim	poldrack-single-stim	s640	False	1
406.507	0.614	407.121	1.1561577639702654	draw_card	0.614	columbia_card_task_fmri	16.0	0.8333333333333334	89.0	-80.0	0.1666666666666666	16.0	5.0	2.0	3.064822735753822	0.614	5.0	stim	poldrack-single-stim	s640	False	0
407.879	1.5	407.128	n/a	-1.0	2.454	columbia_card_task_fmri	n/a	n/a	-1.0	n/a	n/a	n/a	n/a	n/a	n/a	n/a	n/a	ITI	poldrack-single-stim	s640	False	0
409.588	2.793	412.381	2.343657763970264	draw_card	2.793	columbia_card_task_fmri	4.0	0.6875	89.0	-5.0	0.3125	16.0	1.0	5.0	-28.402079186095367	2.793	n/a	stim	poldrack-single-stim	s640	False	1
412.385	0.654	413.039	2.1561577639702643	draw_card	0.654	columbia_card_task_fmri	4.0	0.6666666666666667	89.0	-5.0	0.3333333333333333	16.0	2.0	5.0	-28.3335894271636	0.654	n/a	stim	poldrack-single-stim	s640	False	1
413.044	0.429	413.473	1.941872049684549	draw_card	0.429	columbia_card_task_fmri	4.0	0.6428571428571428	89.0	-5.0	0.3571428571428571	16.0	3.0	5.0	-28.266230524295956	0.429	3.0	stim	poldrack-single-stim	s640	False	0
414.232	1.5	413.481	n/a	-1.0	2.25	columbia_card_task_fmri	n/a	n/a	-1.0	n/a	n/a	n/a	n/a	n/a	n/a	n/a	n/a	ITI	poldrack-single-stim	s640	False	0
415.738	1.34	417.078	-0.5105089026964007	draw_card	1.34	columbia_card_task_fmri	14.0	0.8333333333333334	89.0	-80.0	0.1666666666666666	6.0	1.0	1.0	2.31986389282077	1.34	n/a	stim	poldrack-single-stim	s640	False	1
417.083	0.306	417.389	-3.643842236029736	draw_card	0.306	columbia_card_task_fmri	14.0	0.8	89.0	-80.0	0.2	6.0	2.0	1.0	4.886830085738588	0.306	2.0	stim	poldrack-single-stim	s640	False	0
418.148	1.5	417.397	n/a	-1.0	2.454	columbia_card_task_fmri	n/a	n/a	-1.0	n/a	n/a	n/a	n/a	n/a	n/a	n/a	n/a	ITI	poldrack-single-stim	s640	False	0
419.859	0.629	420.488	1.1561577639702636	draw_card	0.629	columbia_card_task_fmri	15.0	0.8333333333333334	89.0	-75.0	0.1666666666666666	6.0	1.0	1.0	0.8299991147417529	0.629	n/a	stim	poldrack-single-stim	s640	False	1
420.493	0.383	420.876	-1.8438422360297364	draw_card	0.383	columbia_card_task_fmri	15.0	0.8	89.0	-75.0	0.2	6.0	2.0	1.0	3.287619513018271	0.383	n/a	stim	poldrack-single-stim	s640	False	1
420.881	1.102	421.983	-6.343842236029737	draw_card	1.102	columbia_card_task_fmri	15.0	0.75	89.0	-75.0	0.25	6.0	3.0	1.0	6.257348286450423	1.102	n/a	stim	poldrack-single-stim	s640	False	1
421.988	0.77	422.758	-13.843842236029737	end_round	0.77	columbia_card_task_fmri	15.0	0.6666666666666667	71.0	-75.0	0.3333333333333333	6.0	4.0	1.0	9.711216126455426	0.77	3.0	stim	poldrack-single-stim	s640	False	1
423.515	1.5	422.764	n/a	-1.0	2.454	columbia_card_task_fmri	n/a	n/a	-1.0	n/a	n/a	n/a	n/a	n/a	n/a	n/a	n/a	ITI	poldrack-single-stim	s640	False	0
425.225	0.757	425.982	2.8228244306369312	draw_card	0.757	columbia_card_task_fmri	16.0	0.8333333333333334	89.0	-70.0	0.1666666666666666	6.0	1.0	1.0	-0.6597869269015035	0.757	n/a	stim	poldrack-single-stim	s640	False	1
425.988	0.371	426.359	-0.0438422360297356	draw_card	0.371	columbia_card_task_fmri	16.0	0.8	89.0	-70.0	0.2	6.0	2.0	1.0	1.6884823159256823	0.371	n/a	stim	poldrack-single-stim	s640	False	1
426.365	0.57	426.935	-4.343842236029737	draw_card	0.57	columbia_card_task_fmri	16.0	0.75	89.0	-70.0	0.25	6.0	3.0	1.0	4.526094596682576	0.57	3.0	stim	poldrack-single-stim	s640	False	0
427.69	1.5	426.939	n/a	-1.0	2.522	columbia_card_task_fmri	n/a	n/a	-1.0	n/a	n/a	n/a	n/a	n/a	n/a	n/a	n/a	ITI	poldrack-single-stim	s640	False	0
429.469	0.481	429.95	3.406157763970264	draw_card	0.481	columbia_card_task_fmri	23.0	0.75	89.0	-60.0	0.25	8.0	1.0	2.0	3.227704711829432	0.481	n/a	stim	poldrack-single-stim	s640	False	1
429.955	0.291	430.246	0.4418720496845518	draw_card	0.291	columbia_card_task_fmri	23.0	0.7142857142857143	89.0	-60.0	0.2857142857142857	8.0	2.0	2.0	4.782457523781758	0.291	n/a	stim	poldrack-single-stim	s640	False	1
430.252	0.36	430.612	-3.510508902696401	draw_card	0.36	columbia_card_task_fmri	23.0	0.6666666666666667	89.0	-60.0	0.3333333333333333	8.0	3.0	2.0	6.412712257912162	0.36	n/a	stim	poldrack-single-stim	s640	False	1
430.616	0.635	431.251	-9.043842236029738	end_round	0.635	columbia_card_task_fmri	23.0	0.6	71.0	-60.0	0.4	8.0	4.0	2.0	7.947022340298396	0.635	3.0	stim	poldrack-single-stim	s640	False	1
432.009	1.5	431.258	n/a	-1.0	2.454	columbia_card_task_fmri	n/a	n/a	-1.0	n/a	n/a	n/a	n/a	n/a	n/a	n/a	n/a	ITI	poldrack-single-stim	s640	False	0
433.717	0.856	434.573	3.906157763970264	draw_card	0.856	columbia_card_task_fmri	27.0	0.75	89.0	-70.0	0.25	8.0	1.0	2.0	9.287200338462648	0.856	1.0	stim	poldrack-single-stim	s640	False	0
435.332	1.5	434.581	n/a	-1.0	2.658	columbia_card_task_fmri	n/a	n/a	-1.0	n/a	n/a	n/a	n/a	n/a	n/a	n/a	n/a	ITI	poldrack-single-stim	s640	False	0
437.246	0.736	437.982	-0.8438422360297346	draw_card	0.736	columbia_card_task_fmri	16.0	0.7777777777777778	89.0	-65.0	0.2222222222222222	9.0	1.0	2.0	0.9638167730975056	0.736	n/a	stim	poldrack-single-stim	s640	False	1
437.987	0.116	438.103	-3.0938422360297366	draw_card	0.116	columbia_card_task_fmri	16.0	0.75	89.0	-65.0	0.25	9.0	2.0	2.0	2.3621381098919443	0.116	n/a	stim	poldrack-single-stim	s640	False	1
438.109	0.224	438.333	-5.986699378886877	draw_card	0.224	columbia_card_task_fmri	16.0	0.7142857142857143	89.0	-65.0	0.2857142857142857	9.0	3.0	2.0	3.8793894174853207	0.224	n/a	stim	poldrack-single-stim	s640	False	1
438.339	0.7	439.039	-9.843842236029731	end_round	0.7	columbia_card_task_fmri	16.0	0.6666666666666667	71.0	-65.0	0.3333333333333333	9.0	4.0	2.0	5.470324705073665	0.7	3.0	stim	poldrack-single-stim	s640	False	1
439.801	1.5	439.05	n/a	-1.0	2.386	columbia_card_task_fmri	n/a	n/a	-1.0	n/a	n/a	n/a	n/a	n/a	n/a	n/a	n/a	ITI	poldrack-single-stim	s640	False	0
441.444	0.956	442.4	4.356157763970264	draw_card	0.956	columbia_card_task_fmri	13.0	0.9	89.0	-85.0	0.1	10.0	1.0	1.0	-3.308216766678999	0.956	1.0	stim	poldrack-single-stim	s640	False	0
443.159	1.5	442.408	n/a	-1.0	2.522	columbia_card_task_fmri	n/a	n/a	-1.0	n/a	n/a	n/a	n/a	n/a	n/a	n/a	n/a	ITI	poldrack-single-stim	s640	False	0
444.937	1.866	446.803	-0.6438422360297353	draw_card	1.866	columbia_card_task_fmri	14.0	0.8	89.0	-65.0	0.2	10.0	1.0	2.0	-1.1097977355634754	1.866	n/a	stim	poldrack-single-stim	s640	False	1
446.809	0.568	447.377	-2.39939779158529	draw_card	0.568	columbia_card_task_fmri	14.0	0.7777777777777778	89.0	-65.0	0.2222222222222222	10.0	2.0	2.0	0.1328393576718838	0.568	n/a	stim	poldrack-single-stim	s640	False	1
447.382	0.585	447.967	-4.593842236029737	draw_card	0.585	columbia_card_task_fmri	14.0	0.75	89.0	-65.0	0.25	10.0	3.0	2.0	1.4965947190289128	0.585	n/a	stim	poldrack-single-stim	s640	False	1
447.973	0.788	448.761	-7.415270807458306	end_round	0.788	columbia_card_task_fmri	14.0	0.7142857142857143	71.0	-65.0	0.2857142857142857	10.0	4.0	2.0	2.97634356228582	0.788	3.0	stim	poldrack-single-stim	s640	False	1
449.523	1.5	448.772	n/a	-1.0	2.59	columbia_card_task_fmri	n/a	n/a	-1.0	n/a	n/a	n/a	n/a	n/a	n/a	n/a	n/a	ITI	poldrack-single-stim	s640	False	0
451.368	0.868	452.236	0.756157763970265	draw_card	0.868	columbia_card_task_fmri	17.0	0.8	89.0	-70.0	0.2	10.0	1.0	2.0	2.088259183349358	0.868	1.0	stim	poldrack-single-stim	s640	False	0
452.998	1.5	452.247	n/a	-1.0	2.386	columbia_card_task_fmri	n/a	n/a	-1.0	n/a	n/a	n/a	n/a	n/a	n/a	n/a	n/a	ITI	poldrack-single-stim	s640	False	0
454.639	0.408	455.047	-0.5105089026964025	draw_card	0.408	columbia_card_task_fmri	13.0	0.8333333333333334	89.0	-75.0	0.1666666666666666	12.0	1.0	2.0	0.0850955816363665	0.408	n/a	stim	poldrack-single-stim	s640	False	1
455.053	0.429	455.482	-1.8438422360297384	draw_card	0.429	columbia_card_task_fmri	13.0	0.8181818181818181	89.0	-75.0	0.1818181818181818	12.0	2.0	2.0	1.2298702593405435	0.429	n/a	stim	poldrack-single-stim	s640	False	1
455.488	0.488	455.976	-3.4438422360297363	draw_card	0.488	columbia_card_task_fmri	13.0	0.8	89.0	-75.0	0.2	12.0	3.0	2.0	2.4880411178214032	0.488	3.0	stim	poldrack-single-stim	s640	False	0
456.736	1.5	455.985	n/a	-1.0	2.59	columbia_card_task_fmri	n/a	n/a	-1.0	n/a	n/a	n/a	n/a	n/a	n/a	n/a	n/a	ITI	poldrack-single-stim	s640	False	0
458.582	0.729	459.311	1.1561577639702654	draw_card	0.729	columbia_card_task_fmri	14.0	0.8333333333333334	89.0	-70.0	0.1666666666666666	12.0	1.0	2.0	-1.404646911093483	0.729	n/a	stim	poldrack-single-stim	s640	False	1
459.317	0.572	459.889	-0.1165695087570115	draw_card	0.572	columbia_card_task_fmri	14.0	0.8181818181818181	89.0	-70.0	0.1818181818181818	12.0	2.0	2.0	-0.3119713382956561	0.572	2.0	stim	poldrack-single-stim	s640	False	0
460.648	1.5	459.897	n/a	-1.0	2.318	columbia_card_task_fmri	n/a	n/a	-1.0	n/a	n/a	n/a	n/a	n/a	n/a	n/a	n/a	ITI	poldrack-single-stim	s640	False	0
462.221	0.452	462.673	1.1561577639702654	draw_card	0.452	columbia_card_task_fmri	16.0	0.8333333333333334	89.0	-80.0	0.1666666666666666	12.0	1.0	2.0	3.064822735753822	0.452	n/a	stim	poldrack-single-stim	s640	False	1
462.68	0.53	463.21	-0.2983876905751932	draw_card	0.53	columbia_card_task_fmri	16.0	0.8181818181818181	89.0	-80.0	0.1818181818181818	12.0	2.0	2.0	4.31378747869428	0.53	n/a	stim	poldrack-single-stim	s640	False	1
463.216	0.456	463.672	-2.043842236029736	draw_card	0.456	columbia_card_task_fmri	16.0	0.8	89.0	-80.0	0.2	12.0	3.0	2.0	5.6864600244520105	0.456	n/a	stim	poldrack-single-stim	s640	False	1
463.678	0.437	464.115	-4.177175569363071	draw_card	0.437	columbia_card_task_fmri	16.0	0.7777777777777778	89.0	-80.0	0.2222222222222222	12.0	4.0	2.0	7.1968136374688	0.437	n/a	stim	poldrack-single-stim	s640	False	1
464.12	0.622	464.742	-6.843842236029737	end_round	0.622	columbia_card_task_fmri	16.0	0.75	71.0	-80.0	0.25	12.0	5.0	2.0	8.854353294151082	0.622	4.0	stim	poldrack-single-stim	s640	False	1
465.499	1.5	464.748	n/a	-1.0	2.25	columbia_card_task_fmri	n/a	n/a	-1.0	n/a	n/a	n/a	n/a	n/a	n/a	n/a	n/a	ITI	poldrack-single-stim	s640	False	0
467.006	0.498	467.504	0.9561577639702644	draw_card	0.498	columbia_card_task_fmri	16.0	0.8	89.0	-65.0	0.2	15.0	1.0	3.0	-0.3103194549932979	0.498	n/a	stim	poldrack-single-stim	s640	False	1
467.508	0.085	467.593	-0.2009850931725922	draw_card	0.085	columbia_card_task_fmri	16.0	0.7857142857142857	89.0	-65.0	0.2142857142857142	15.0	2.0	3.0	0.5255600884346379	0.085	n/a	stim	poldrack-single-stim	s640	False	1
467.598	0.624	468.222	-1.5361499283374298	draw_card	0.624	columbia_card_task_fmri	16.0	0.7692307692307692	89.0	-65.0	0.2307692307692307	15.0	3.0	3.0	1.4159659991551692	0.624	n/a	stim	poldrack-single-stim	s640	False	1
468.226	2.285	470.511	-3.0938422360297366	end_round	2.285	columbia_card_task_fmri	16.0	0.75	71.0	-65.0	0.25	15.0	4.0	3.0	2.3621381098919443	2.285	3.0	stim	poldrack-single-stim	s640	False	1
471.27	1.5	470.519	n/a	-1.0	2.454	columbia_card_task_fmri	n/a	n/a	-1.0	n/a	n/a	n/a	n/a	n/a	n/a	n/a	n/a	ITI	poldrack-single-stim	s640	False	0
472.979	0.557	473.536	-0.7188422360297364	draw_card	0.557	columbia_card_task_fmri	15.0	0.8125	89.0	-75.0	0.1875	16.0	1.0	3.0	2.4161936828460213	0.557	n/a	stim	poldrack-single-stim	s640	False	1
473.541	0.336	473.877	-1.8438422360297364	draw_card	0.336	columbia_card_task_fmri	15.0	0.8	89.0	-75.0	0.2	16.0	2.0	3.0	3.287619513018271	0.336	n/a	stim	poldrack-single-stim	s640	False	1
473.884	0.398	474.282	-3.1295565217440213	draw_card	0.398	columbia_card_task_fmri	15.0	0.7857142857142857	89.0	-75.0	0.2142857142857142	16.0	3.0	3.0	4.2164839664428655	0.398	n/a	stim	poldrack-single-stim	s640	False	1
474.287	0.358	474.645	-4.61307300526051	draw_card	0.358	columbia_card_task_fmri	15.0	0.7692307692307692	89.0	-75.0	0.2307692307692307	16.0	4.0	3.0	5.205934516442291	0.358	n/a	stim	poldrack-single-stim	s640	False	1
474.651	3.002	477.653	-6.343842236029737	end_round	3.002	columbia_card_task_fmri	15.0	0.75	71.0	-75.0	0.25	16.0	5.0	3.0	6.257348286450423	3.002	4.0	stim	poldrack-single-stim	s640	False	1
478.409	1.5	477.658	n/a	-1.0	3.27	columbia_card_task_fmri	n/a	n/a	-1.0	n/a	n/a	n/a	n/a	n/a	n/a	n/a	n/a	ITI	poldrack-single-stim	s640	False	0
480.935	1.641	482.576	-0.1563422360297364	draw_card	1.641	columbia_card_task_fmri	14.0	0.6875	89.0	-35.0	0.3125	16.0	1.0	5.0	-9.989425110803	1.641	n/a	stim	poldrack-single-stim	s640	False	1
482.581	0.759	483.34	-1.1771755693630686	draw_card	0.759	columbia_card_task_fmri	14.0	0.6666666666666667	89.0	-35.0	0.3333333333333333	16.0	2.0	5.0	-9.603203178259282	0.759	n/a	stim	poldrack-single-stim	s640	False	1
483.347	1.944	485.291	-2.3438422360297366	end_round	1.944	columbia_card_task_fmri	14.0	0.6428571428571428	71.0	-35.0	0.3571428571428571	16.0	3.0	5.0	-9.223778236226956	1.944	2.0	stim	poldrack-single-stim	s640	False	1
486.052	1.5	485.301	n/a	-1.0	2.25	columbia_card_task_fmri	n/a	n/a	-1.0	n/a	n/a	n/a	n/a	n/a	n/a	n/a	n/a	ITI	poldrack-single-stim	s640	False	0
487.559	1.558	489.117	5.0228244306369305	draw_card	1.558	columbia_card_task_fmri	16.0	0.8666666666666667	89.0	-75.0	0.1333333333333333	15.0	1.0	2.0	-1.775291161990186	1.558	n/a	stim	poldrack-single-stim	s640	False	1
489.124	0.301	489.425	4.156157763970265	draw_card	0.301	columbia_card_task_fmri	16.0	0.8571428571428572	89.0	-75.0	0.1428571428571428	15.0	2.0	2.0	-0.8665925623739668	0.301	n/a	stim	poldrack-single-stim	s640	False	1
489.432	0.329	489.761	3.156157763970264	draw_card	0.329	columbia_card_task_fmri	16.0	0.8461538461538461	89.0	-75.0	0.1538461538461538	15.0	3.0	2.0	0.1223191330890429	0.329	n/a	stim	poldrack-single-stim	s640	False	1
489.768	0.415	490.183	1.9894910973035973	draw_card	0.415	columbia_card_task_fmri	16.0	0.8333333333333334	89.0	-75.0	0.1666666666666666	15.0	4.0	2.0	1.2024583328246123	0.415	4.0	stim	poldrack-single-stim	s640	False	0
490.944	1.5	490.193	n/a	-1.0	2.25	columbia_card_task_fmri	n/a	n/a	-1.0	n/a	n/a	n/a	n/a	n/a	n/a	n/a	n/a	ITI	poldrack-single-stim	s640	False	0
492.449	1.05	493.499	5.689491097303597	draw_card	1.05	columbia_card_task_fmri	16.0	0.8666666666666667	89.0	-70.0	0.1333333333333333	15.0	1.0	2.0	-3.4737095828625364	1.05	n/a	stim	poldrack-single-stim	s640	False	1
493.504	0.107	493.611	4.870443478255979	draw_card	0.107	columbia_card_task_fmri	16.0	0.8571428571428572	89.0	-70.0	0.1428571428571428	15.0	2.0	2.0	-2.6150090970373903	0.107	n/a	stim	poldrack-single-stim	s640	False	1
493.616	0.222	493.838	3.925388533201032	draw_card	0.222	columbia_card_task_fmri	16.0	0.8461538461538461	89.0	-70.0	0.1538461538461538	15.0	3.0	2.0	-1.680504598108179	0.222	n/a	stim	poldrack-single-stim	s640	False	1
493.843	1.231	495.074	2.8228244306369312	draw_card	1.231	columbia_card_task_fmri	16.0	0.8333333333333334	89.0	-70.0	0.1666666666666666	15.0	4.0	2.0	-0.6597869269015035	1.231	n/a	stim	poldrack-single-stim	s640	False	1
495.079	0.542	495.621	1.5197941276066251	end_round	0.542	columbia_card_task_fmri	16.0	0.8181818181818181	71.0	-70.0	0.1818181818181818	15.0	5.0	2.0	0.4589385770218896	0.542	4.0	stim	poldrack-single-stim	s640	False	1
496.381	1.5	495.63	n/a	-1.0	2.318	columbia_card_task_fmri	n/a	n/a	-1.0	n/a	n/a	n/a	n/a	n/a	n/a	n/a	n/a	ITI	poldrack-single-stim	s640	False	0
497.954	0.697	498.651	3.031157763970264	draw_card	0.697	columbia_card_task_fmri	8.0	0.9375	89.0	-90.0	0.0625	16.0	1.0	1.0	-8.980760448961327	0.697	n/a	stim	poldrack-single-stim	s640	False	1
498.656	1.951	500.607	2.62282443063693	draw_card	1.951	columbia_card_task_fmri	8.0	0.9333333333333332	89.0	-90.0	0.0666666666666666	16.0	2.0	1.0	-8.258120904181574	1.951	n/a	stim	poldrack-single-stim	s640	False	1
500.612	0.451	501.063	2.1561577639702643	draw_card	0.451	columbia_card_task_fmri	8.0	0.9285714285714286	89.0	-90.0	0.0714285714285714	16.0	3.0	1.0	-7.465614933739168	0.451	n/a	stim	poldrack-single-stim	s640	False	1
501.069	1.227	502.296	1.6176962255087253	draw_card	1.227	columbia_card_task_fmri	8.0	0.9230769230769232	89.0	-90.0	0.0769230769230769	16.0	4.0	1.0	-6.591363160013017	1.227	4.0	stim	poldrack-single-stim	s640	False	0
503.058	1.5	502.307	n/a	-1.0	2.726	columbia_card_task_fmri	n/a	n/a	-1.0	n/a	n/a	n/a	n/a	n/a	n/a	n/a	n/a	ITI	poldrack-single-stim	s640	False	0
505.041	1.713	506.754	4.593657763970263	draw_card	1.713	columbia_card_task_fmri	10.0	0.9375	89.0	-95.0	0.0625	16.0	1.0	1.0	-7.288205396537386	1.713	n/a	stim	poldrack-single-stim	s640	False	1
506.76	0.235	506.995	4.156157763970264	draw_card	0.235	columbia_card_task_fmri	10.0	0.9333333333333332	89.0	-95.0	0.0666666666666666	16.0	2.0	1.0	-6.513833965626791	0.235	n/a	stim	poldrack-single-stim	s640	False	1
507.002	0.871	507.873	3.656157763970264	draw_card	0.871	columbia_card_task_fmri	10.0	0.9285714285714286	89.0	-95.0	0.0714285714285714	16.0	3.0	1.0	-5.664602103370129	0.871	n/a	stim	poldrack-single-stim	s640	False	1
507.88	0.555	508.435	3.0792346870471867	draw_card	0.555	columbia_card_task_fmri	10.0	0.9230769230769232	89.0	-95.0	0.0769230769230769	16.0	4.0	1.0	-4.727781571631212	0.555	n/a	stim	poldrack-single-stim	s640	False	1
508.442	0.115	508.557	2.406157763970264	draw_card	0.115	columbia_card_task_fmri	10.0	0.9166666666666666	89.0	-95.0	0.0833333333333333	16.0	5.0	1.0	-3.6874528950364183	0.115	n/a	stim	poldrack-single-stim	s640	False	1
508.562	0.952	509.514	1.6107032185157169	draw_card	0.952	columbia_card_task_fmri	10.0	0.9090909090909092	89.0	-95.0	0.0909090909090909	16.0	6.0	1.0	-2.523429912230622	0.952	n/a	stim	poldrack-single-stim	s640	False	1
509.52	1.096	510.616	0.6561577639702636	draw_card	1.096	columbia_card_task_fmri	10.0	0.9	89.0	-95.0	0.1	16.0	7.0	1.0	-1.2097306592119637	1.096	n/a	stim	poldrack-single-stim	s640	False	1
510.622	1.011	511.633	-0.5105089026964025	end_round	1.011	columbia_card_task_fmri	10.0	0.8888888888888888	71.0	-95.0	0.1111111111111111	16.0	8.0	1.0	0.2876233277279922	1.011	7.0	stim	poldrack-single-stim	s640	False	1
512.395	1.5	511.644	n/a	-1.0	2.386	columbia_card_task_fmri	n/a	n/a	-1.0	n/a	n/a	n/a	n/a	n/a	n/a	n/a	n/a	ITI	poldrack-single-stim	s640	False	0
514.036	0.866	514.902	5.531157763970263	draw_card	0.866	columbia_card_task_fmri	15.0	0.875	89.0	-70.0	0.125	16.0	1.0	2.0	-4.596068043353409	0.866	n/a	stim	poldrack-single-stim	s640	False	1
514.907	0.299	515.206	4.8228244306369294	draw_card	0.299	columbia_card_task_fmri	15.0	0.8666666666666667	89.0	-70.0	0.1333333333333333	16.0	2.0	2.0	-3.8133755736062938	0.299	n/a	stim	poldrack-single-stim	s640	False	1
515.214	0.415	515.629	4.013300621113121	draw_card	0.415	columbia_card_task_fmri	15.0	0.8571428571428572	89.0	-70.0	0.1428571428571428	16.0	3.0	2.0	-2.96467521358802	0.415	n/a	stim	poldrack-single-stim	s640	False	1
515.633	0.403	516.036	3.079234687047185	draw_card	0.403	columbia_card_task_fmri	15.0	0.8461538461538461	89.0	-70.0	0.1538461538461538	16.0	4.0	2.0	-2.0410526699361604	0.403	4.0	stim	poldrack-single-stim	s640	False	0
516.794	1.5	516.043	n/a	-1.0	2.318	columbia_card_task_fmri	n/a	n/a	-1.0	n/a	n/a	n/a	n/a	n/a	n/a	n/a	n/a	ITI	poldrack-single-stim	s640	False	0
518.369	0.538	518.907	4.531157763970263	draw_card	0.538	columbia_card_task_fmri	16.0	0.875	89.0	-85.0	0.125	16.0	1.0	2.0	0.6916722488584455	0.538	n/a	stim	poldrack-single-stim	s640	False	1
518.912	0.257	519.169	3.6894910973035966	draw_card	0.257	columbia_card_task_fmri	16.0	0.8666666666666667	89.0	-85.0	0.1333333333333333	16.0	2.0	2.0	1.6219180312640589	0.257	n/a	stim	poldrack-single-stim	s640	False	1
519.174	1.336	520.51	2.7275863353988363	draw_card	1.336	columbia_card_task_fmri	16.0	0.8571428571428572	89.0	-85.0	0.1428571428571428	16.0	3.0	2.0	2.6306022671474523	1.336	n/a	stim	poldrack-single-stim	s640	False	1
520.515	0.648	521.163	1.6176962255087235	draw_card	0.648	columbia_card_task_fmri	16.0	0.8461538461538461	89.0	-85.0	0.1538461538461538	16.0	4.0	2.0	3.728317492738668	0.648	n/a	stim	poldrack-single-stim	s640	False	1
521.168	0.074	521.242	0.3228244306369314	draw_card	0.074	columbia_card_task_fmri	16.0	0.8333333333333334	89.0	-85.0	0.1666666666666666	16.0	5.0	2.0	4.927288605430483	0.074	5.0	stim	poldrack-single-stim	s640	False	0
521.998	1.5	521.247	n/a	-1.0	2.25	columbia_card_task_fmri	n/a	n/a	-1.0	n/a	n/a	n/a	n/a	n/a	n/a	n/a	n/a	ITI	poldrack-single-stim	s640	False	0
