onset	duration	movement_onset	EV	action	block_duration	experiment_exp_id	gain_amount	gain_probability	key_press	loss_amount	loss_probability	num_cards	num_click_in_round	num_loss_cards	risk	response_time	total_cards	trial_id	trial_type	worker_id	junk	feedback
3.017	3.254	6.271	-1.1186289590392642	draw_card	3.254	columbia_card_task_fmri	12.0	0.8333333333333334	89.0	-70.0	0.1666666666666666	6.0	1.0	1.0	-0.7622392539996632	3.254	n/a	stim	poldrack-single-stim	s641	False	1
6.273	3.706	9.979	-3.8519622923725967	end_round	3.706	columbia_card_task_fmri	12.0	0.8	71.0	-70.0	0.2	6.0	2.0	1.0	1.4778294719427407	3.706	1.0	stim	poldrack-single-stim	s641	False	1
10.734	1.5	9.983	n/a	-1.0	2.454	columbia_card_task_fmri	n/a	n/a	-1.0	n/a	n/a	n/a	n/a	n/a	n/a	n/a	n/a	ITI	poldrack-single-stim	s641	False	0
12.44	1.913	14.353	-0.2852956257059302	draw_card	1.913	columbia_card_task_fmri	14.0	0.8333333333333334	89.0	-75.0	0.1666666666666666	6.0	1.0	1.0	1.8461203041974412	1.913	n/a	stim	poldrack-single-stim	s641	False	1
14.354	1.231	15.585	-3.251962292372597	draw_card	1.231	columbia_card_task_fmri	14.0	0.8	89.0	-75.0	0.2	6.0	2.0	1.0	4.277469439930194	1.231	n/a	stim	poldrack-single-stim	s641	False	1
15.586	1.62	17.206	-7.701962292372598	draw_card	1.62	columbia_card_task_fmri	14.0	0.75	89.0	-75.0	0.25	6.0	3.0	1.0	7.215278357330469	1.62	n/a	stim	poldrack-single-stim	s641	False	1
17.208	1.91	19.118	-15.118628959039263	end_round	1.91	columbia_card_task_fmri	14.0	0.6666666666666667	71.0	-75.0	0.3333333333333333	6.0	4.0	1.0	10.631832928751706	1.91	3.0	stim	poldrack-single-stim	s641	False	1
19.877	1.5	19.126	n/a	-1.0	2.454	columbia_card_task_fmri	n/a	n/a	-1.0	n/a	n/a	n/a	n/a	n/a	n/a	n/a	n/a	ITI	poldrack-single-stim	s641	False	0
21.583	0.5	22.083	1.3813710409607358	draw_card	0.5	columbia_card_task_fmri	15.0	0.8333333333333334	89.0	-70.0	0.1666666666666666	6.0	1.0	1.0	0.355621336574039	0.5	n/a	stim	poldrack-single-stim	s641	False	1
22.085	0.101	22.186	-1.451962292372598	draw_card	0.101	columbia_card_task_fmri	15.0	0.8	89.0	-70.0	0.2	6.0	2.0	1.0	2.677667912769593	0.101	n/a	stim	poldrack-single-stim	s641	False	1
22.188	1.745	23.933	-5.701962292372598	draw_card	1.745	columbia_card_task_fmri	15.0	0.75	89.0	-70.0	0.25	6.0	3.0	1.0	5.483410896124049	1.745	n/a	stim	poldrack-single-stim	s641	False	1
23.935	0.75	24.685	-12.785295625705928	draw_card	0.75	columbia_card_task_fmri	15.0	0.6666666666666667	89.0	-70.0	0.3333333333333333	6.0	4.0	1.0	8.746383264156655	0.75	n/a	stim	poldrack-single-stim	s641	False	1
24.686	1.346	26.032	-26.9519622923726	end_round	1.346	columbia_card_task_fmri	15.0	0.5	71.0	-70.0	0.5	6.0	5.0	1.0	11.176784684132087	1.346	4.0	stim	poldrack-single-stim	s641	False	1
26.787	1.5	26.036	n/a	-1.0	2.522	columbia_card_task_fmri	n/a	n/a	-1.0	n/a	n/a	n/a	n/a	n/a	n/a	n/a	n/a	ITI	poldrack-single-stim	s641	False	0
28.56	1.091	29.651	2.2147043742940697	draw_card	1.091	columbia_card_task_fmri	17.0	0.8333333333333334	89.0	-75.0	0.1666666666666666	6.0	1.0	1.0	2.9640066833790684	1.091	1.0	stim	poldrack-single-stim	s641	False	0
30.407	1.5	29.656	n/a	-1.0	2.454	columbia_card_task_fmri	n/a	n/a	-1.0	n/a	n/a	n/a	n/a	n/a	n/a	n/a	n/a	ITI	poldrack-single-stim	s641	False	0
32.112	2.278	34.39	3.548037707627402	draw_card	2.278	columbia_card_task_fmri	24.0	0.75	89.0	-60.0	0.25	8.0	1.0	2.0	5.05044675873701	2.278	n/a	stim	poldrack-single-stim	s641	False	1
34.392	0.641	35.033	0.5480377076274019	draw_card	0.641	columbia_card_task_fmri	24.0	0.7142857142857143	89.0	-60.0	0.2857142857142857	8.0	2.0	2.0	6.624540469423252	0.641	n/a	stim	poldrack-single-stim	s641	False	1
35.034	0.665	35.699	-3.451962292372598	draw_card	0.665	columbia_card_task_fmri	24.0	0.6666666666666667	89.0	-60.0	0.3333333333333333	8.0	3.0	2.0	8.275023353884762	0.665	3.0	stim	poldrack-single-stim	s641	False	0
36.456	1.5	35.705	n/a	-1.0	2.658	columbia_card_task_fmri	n/a	n/a	-1.0	n/a	n/a	n/a	n/a	n/a	n/a	n/a	n/a	ITI	poldrack-single-stim	s641	False	0
38.366	1.98	40.346	3.548037707627402	draw_card	1.98	columbia_card_task_fmri	29.0	0.75	89.0	-75.0	0.25	8.0	1.0	2.0	13.709906930969318	1.98	n/a	stim	poldrack-single-stim	s641	False	1
40.347	2.011	42.358	-0.1662480066583098	draw_card	2.011	columbia_card_task_fmri	29.0	0.7142857142857143	89.0	-75.0	0.2857142857142857	8.0	2.0	2.0	15.658858558164203	2.011	n/a	stim	poldrack-single-stim	s641	False	1
42.36	1.513	43.873	-5.118628959039262	end_round	1.513	columbia_card_task_fmri	29.0	0.6666666666666667	71.0	-75.0	0.3333333333333333	8.0	3.0	2.0	17.702384541671897	1.513	2.0	stim	poldrack-single-stim	s641	False	1
44.625	1.5	43.874	n/a	-1.0	2.386	columbia_card_task_fmri	n/a	n/a	-1.0	n/a	n/a	n/a	n/a	n/a	n/a	n/a	n/a	ITI	poldrack-single-stim	s641	False	0
46.263	1.39	47.653	-0.6741845145948178	draw_card	1.39	columbia_card_task_fmri	17.0	0.7777777777777778	89.0	-65.0	0.2222222222222222	9.0	1.0	2.0	2.7683123600894106	1.39	1.0	stim	poldrack-single-stim	s641	False	0
48.41	1.5	47.659	n/a	-1.0	2.522	columbia_card_task_fmri	n/a	n/a	-1.0	n/a	n/a	n/a	n/a	n/a	n/a	n/a	n/a	ITI	poldrack-single-stim	s641	False	0
50.185	0.523	50.708	3.6480377076274015	draw_card	0.523	columbia_card_task_fmri	14.0	0.9	89.0	-95.0	0.1	10.0	1.0	1.0	1.3778434703327989	0.523	1.0	stim	poldrack-single-stim	s641	False	0
51.463	1.5	50.712	n/a	-1.0	2.59	columbia_card_task_fmri	n/a	n/a	-1.0	n/a	n/a	n/a	n/a	n/a	n/a	n/a	n/a	ITI	poldrack-single-stim	s641	False	0
53.306	2.158	55.464	-0.4519622923725981	draw_card	2.158	columbia_card_task_fmri	15.0	0.8	89.0	-65.0	0.2	10.0	1.0	2.0	0.6779439082510095	2.158	n/a	stim	poldrack-single-stim	s641	False	1
55.466	1.158	56.624	-2.229740070150375	draw_card	1.158	columbia_card_task_fmri	15.0	0.7777777777777778	89.0	-65.0	0.2222222222222222	10.0	2.0	2.0	1.9369430463651227	1.158	n/a	stim	poldrack-single-stim	s641	False	1
56.626	1.091	57.717	-4.451962292372598	draw_card	1.091	columbia_card_task_fmri	15.0	0.75	89.0	-65.0	0.25	10.0	3.0	2.0	3.3186023481173947	1.091	3.0	stim	poldrack-single-stim	s641	False	0
58.472	1.5	57.721	n/a	-1.0	2.386	columbia_card_task_fmri	n/a	n/a	-1.0	n/a	n/a	n/a	n/a	n/a	n/a	n/a	n/a	ITI	poldrack-single-stim	s641	False	0
60.111	1.326	61.437	1.148037707627403	draw_card	1.326	columbia_card_task_fmri	17.0	0.8	89.0	-65.0	0.2	10.0	1.0	2.0	1.4778294719427407	1.326	n/a	stim	poldrack-single-stim	s641	False	1
61.439	1.125	62.564	-0.6741845145948178	draw_card	1.125	columbia_card_task_fmri	17.0	0.7777777777777778	89.0	-65.0	0.2222222222222222	10.0	2.0	2.0	2.7683123600894106	1.125	n/a	stim	poldrack-single-stim	s641	False	1
62.565	2.599	65.164	-2.951962292372598	draw_card	2.599	columbia_card_task_fmri	17.0	0.75	89.0	-65.0	0.25	10.0	3.0	2.0	4.184522036841031	2.599	n/a	stim	poldrack-single-stim	s641	False	1
65.165	1.251	66.416	-5.880533720944025	end_round	1.251	columbia_card_task_fmri	17.0	0.7142857142857143	71.0	-65.0	0.2857142857142857	10.0	4.0	2.0	5.721129072933131	1.251	3.0	stim	poldrack-single-stim	s641	False	1
67.171	1.5	66.42	n/a	-1.0	2.59	columbia_card_task_fmri	n/a	n/a	-1.0	n/a	n/a	n/a	n/a	n/a	n/a	n/a	n/a	ITI	poldrack-single-stim	s641	False	0
69.014	1.939	70.953	-0.2852956257059302	draw_card	1.939	columbia_card_task_fmri	13.0	0.8333333333333334	89.0	-70.0	0.1666666666666666	12.0	1.0	2.0	-0.3896204495716269	1.939	n/a	stim	poldrack-single-stim	s641	False	1
70.955	1.409	72.364	-1.5428713832816916	draw_card	1.409	columbia_card_task_fmri	13.0	0.8181818181818181	89.0	-70.0	0.1818181818181818	12.0	2.0	2.0	0.6905945112259957	1.409	n/a	stim	poldrack-single-stim	s641	False	1
72.366	1.644	74.01	-3.0519622923725978	draw_card	1.644	columbia_card_task_fmri	13.0	0.8	89.0	-70.0	0.2	12.0	3.0	2.0	1.8777743214851128	1.644	n/a	stim	poldrack-single-stim	s641	False	1
74.012	1.284	75.296	-4.896406736817043	draw_card	1.284	columbia_card_task_fmri	13.0	0.7777777777777778	89.0	-70.0	0.2222222222222222	12.0	4.0	2.0	3.183999006428458	1.284	n/a	stim	poldrack-single-stim	s641	False	1
75.298	1.033	76.331	-7.201962292372598	draw_card	1.033	columbia_card_task_fmri	13.0	0.75	89.0	-70.0	0.25	12.0	5.0	2.0	4.617483791377381	1.033	n/a	stim	poldrack-single-stim	s641	False	1
76.332	1.105	77.437	-10.16624800665831	end_round	1.105	columbia_card_task_fmri	13.0	0.7142857142857143	71.0	-70.0	0.2857142857142857	12.0	6.0	2.0	6.172834189907384	1.105	5.0	stim	poldrack-single-stim	s641	False	1
78.193	1.5	77.442	n/a	-1.0	2.318	columbia_card_task_fmri	n/a	n/a	-1.0	n/a	n/a	n/a	n/a	n/a	n/a	n/a	n/a	ITI	poldrack-single-stim	s641	False	0
79.763	0.64	80.403	-0.2852956257059302	draw_card	0.64	columbia_card_task_fmri	15.0	0.8333333333333334	89.0	-80.0	0.1666666666666666	12.0	1.0	2.0	4.081902383539436	0.64	1.0	stim	poldrack-single-stim	s641	False	0
81.16	1.5	80.409	n/a	-1.0	2.25	columbia_card_task_fmri	n/a	n/a	-1.0	n/a	n/a	n/a	n/a	n/a	n/a	n/a	n/a	ITI	poldrack-single-stim	s641	False	0
82.662	0.544	83.206	-1.251962292372597	draw_card	0.544	columbia_card_task_fmri	14.0	0.8	89.0	-65.0	0.2	15.0	1.0	3.0	0.2780032987644318	0.544	1.0	stim	poldrack-single-stim	s641	False	0
83.964	1.5	83.213	n/a	-1.0	2.454	columbia_card_task_fmri	n/a	n/a	-1.0	n/a	n/a	n/a	n/a	n/a	n/a	n/a	n/a	ITI	poldrack-single-stim	s641	False	0
85.67	0.433	86.103	-1.326962292372598	draw_card	0.433	columbia_card_task_fmri	1.0	0.9375	89.0	-45.0	0.0625	16.0	1.0	1.0	-20.178442927828677	0.433	n/a	stim	poldrack-single-stim	s641	False	1
86.104	0.943	87.047	-1.5186289590392643	draw_card	0.943	columbia_card_task_fmri	1.0	0.9333333333333332	89.0	-45.0	0.0666666666666666	16.0	2.0	1.0	-19.83925250411761	0.943	n/a	stim	poldrack-single-stim	s641	False	1
87.05	1.101	88.151	-1.7376765780868837	draw_card	1.101	columbia_card_task_fmri	1.0	0.9285714285714286	89.0	-45.0	0.0714285714285714	16.0	3.0	1.0	-19.467267874695253	1.101	n/a	stim	poldrack-single-stim	s641	False	1
88.154	2.0	90.154	-1.9904238308341364	draw_card	2.0	columbia_card_task_fmri	1.0	0.9230769230769232	89.0	-45.0	0.0769230769230769	16.0	4.0	1.0	-19.056913027639503	2.0	n/a	stim	poldrack-single-stim	s641	False	1
90.157	0.999	91.156	-2.285295625705932	draw_card	0.999	columbia_card_task_fmri	1.0	0.9166666666666666	89.0	-45.0	0.0833333333333333	16.0	5.0	1.0	-18.601213911351696	0.999	n/a	stim	poldrack-single-stim	s641	False	1
91.159	0.417	91.576	-2.63378047419078	draw_card	0.417	columbia_card_task_fmri	1.0	0.9090909090909092	89.0	-45.0	0.0909090909090909	16.0	6.0	1.0	-18.09132729062555	0.417	n/a	stim	poldrack-single-stim	s641	False	1
91.578	0.37	91.948	-3.051962292372598	draw_card	0.37	columbia_card_task_fmri	1.0	0.9	89.0	-45.0	0.1	16.0	7.0	1.0	-17.51587085349947	0.37	n/a	stim	poldrack-single-stim	s641	False	1
91.95	0.475	92.425	-3.563073403483709	draw_card	0.475	columbia_card_task_fmri	1.0	0.8888888888888888	89.0	-45.0	0.1111111111111111	16.0	8.0	1.0	-16.859959101539364	0.475	n/a	stim	poldrack-single-stim	s641	False	1
92.428	0.325	92.753	-4.201962292372598	draw_card	0.325	columbia_card_task_fmri	1.0	0.875	89.0	-45.0	0.125	16.0	9.0	1.0	-16.103810512821422	0.325	n/a	stim	poldrack-single-stim	s641	False	1
92.755	0.369	93.124	-5.023390863801169	draw_card	0.369	columbia_card_task_fmri	1.0	0.8571428571428572	89.0	-45.0	0.1428571428571428	16.0	10.0	1.0	-15.220775026643407	0.369	n/a	stim	poldrack-single-stim	s641	False	1
93.125	0.596	93.721	-6.118628959039265	end_round	0.596	columbia_card_task_fmri	1.0	0.8333333333333334	71.0	-45.0	0.1666666666666666	16.0	11.0	1.0	-14.174803149779905	0.596	10.0	stim	poldrack-single-stim	s641	False	1
94.479	1.5	93.728	n/a	-1.0	3.27	columbia_card_task_fmri	n/a	n/a	-1.0	n/a	n/a	n/a	n/a	n/a	n/a	n/a	n/a	ITI	poldrack-single-stim	s641	False	0
97.002	3.814	100.816	-0.3894622923725981	draw_card	3.814	columbia_card_task_fmri	15.0	0.8125	89.0	-70.0	0.1875	16.0	1.0	3.0	1.8543293842287127	3.814	1.0	stim	poldrack-single-stim	s641	False	0
101.573	1.5	100.822	n/a	-1.0	2.25	columbia_card_task_fmri	n/a	n/a	-1.0	n/a	n/a	n/a	n/a	n/a	n/a	n/a	n/a	ITI	poldrack-single-stim	s641	False	0
103.076	4.147	107.223	6.548037707627402	draw_card	4.147	columbia_card_task_fmri	30.0	0.7	89.0	-50.0	0.3	10.0	1.0	3.0	5.337952982622113	4.147	1.0	stim	poldrack-single-stim	s641	False	0
107.978	1.5	107.227	n/a	-1.0	2.25	columbia_card_task_fmri	n/a	n/a	-1.0	n/a	n/a	n/a	n/a	n/a	n/a	n/a	n/a	ITI	poldrack-single-stim	s641	False	0
109.48	1.126	110.606	5.948037707627402	draw_card	1.126	columbia_card_task_fmri	17.0	0.8666666666666667	89.0	-70.0	0.1333333333333333	15.0	1.0	2.0	-1.7473580931206776	1.126	n/a	stim	poldrack-single-stim	s641	False	1
110.608	1.396	112.004	5.119466279055975	draw_card	1.396	columbia_card_task_fmri	17.0	0.8571428571428572	89.0	-70.0	0.1428571428571428	15.0	2.0	2.0	-0.8781580051376636	1.396	n/a	stim	poldrack-single-stim	s641	False	1
112.007	1.23	113.237	4.163422323012017	draw_card	1.23	columbia_card_task_fmri	17.0	0.8461538461538461	89.0	-70.0	0.1538461538461538	15.0	3.0	2.0	0.0677405990327137	1.23	n/a	stim	poldrack-single-stim	s641	False	1
113.238	0.705	113.943	3.048037707627404	draw_card	0.705	columbia_card_task_fmri	17.0	0.8333333333333334	89.0	-70.0	0.1666666666666666	15.0	4.0	2.0	1.100868372434853	0.705	n/a	stim	poldrack-single-stim	s641	False	1
113.946	0.526	114.472	1.7298558894455818	draw_card	0.526	columbia_card_task_fmri	17.0	0.8181818181818181	89.0	-70.0	0.1818181818181818	15.0	5.0	2.0	2.233157308111643	0.526	n/a	stim	poldrack-single-stim	s641	False	1
114.475	1.078	115.553	0.1480377076274033	end_round	1.078	columbia_card_task_fmri	17.0	0.8	71.0	-70.0	0.2	15.0	6.0	2.0	3.4775663954772758	1.078	5.0	stim	poldrack-single-stim	s641	False	1
116.308	1.5	115.557	n/a	-1.0	2.318	columbia_card_task_fmri	n/a	n/a	-1.0	n/a	n/a	n/a	n/a	n/a	n/a	n/a	n/a	ITI	poldrack-single-stim	s641	False	0
117.878	2.419	120.297	1.173037707627402	draw_card	2.419	columbia_card_task_fmri	7.0	0.9375	89.0	-95.0	0.0625	16.0	1.0	1.0	-6.6303982991395465	2.419	n/a	stim	poldrack-single-stim	s641	False	1
120.3	1.006	121.306	0.7480377076274021	draw_card	1.006	columbia_card_task_fmri	7.0	0.9333333333333332	89.0	-95.0	0.0666666666666666	16.0	2.0	1.0	-5.877576842998	1.006	n/a	stim	poldrack-single-stim	s641	False	1
121.309	0.921	122.23	0.2623234219131163	draw_card	0.921	columbia_card_task_fmri	7.0	0.9285714285714286	89.0	-95.0	0.0714285714285714	16.0	3.0	1.0	-5.052016107823391	0.921	n/a	stim	poldrack-single-stim	s641	False	1
122.233	0.574	122.807	-0.2981161385264448	draw_card	0.574	columbia_card_task_fmri	7.0	0.9230769230769232	89.0	-95.0	0.0769230769230769	16.0	4.0	1.0	-4.141349851835869	0.574	n/a	stim	poldrack-single-stim	s641	False	1
122.809	0.358	123.167	-0.951962292372598	draw_card	0.358	columbia_card_task_fmri	7.0	0.9166666666666666	89.0	-95.0	0.0833333333333333	16.0	5.0	1.0	-3.130111515435693	0.358	n/a	stim	poldrack-single-stim	s641	False	1
123.168	0.362	123.53	-1.7246895650998717	draw_card	0.362	columbia_card_task_fmri	7.0	0.9090909090909092	89.0	-95.0	0.0909090909090909	16.0	6.0	1.0	-1.9986894496896	0.362	n/a	stim	poldrack-single-stim	s641	False	1
123.532	0.602	124.134	-2.6519622923725983	draw_card	0.602	columbia_card_task_fmri	7.0	0.9	89.0	-95.0	0.1	16.0	7.0	1.0	-0.7218414335120968	0.602	n/a	stim	poldrack-single-stim	s641	False	1
124.136	0.491	124.627	-3.785295625705932	draw_card	0.491	columbia_card_task_fmri	7.0	0.8888888888888888	89.0	-95.0	0.1111111111111111	16.0	8.0	1.0	0.733443197592706	0.491	n/a	stim	poldrack-single-stim	s641	False	1
124.629	0.986	125.615	-5.201962292372598	end_round	0.986	columbia_card_task_fmri	7.0	0.875	71.0	-95.0	0.125	16.0	9.0	1.0	2.411032038285746	0.986	8.0	stim	poldrack-single-stim	s641	False	1
126.368	1.5	125.617	n/a	-1.0	2.726	columbia_card_task_fmri	n/a	n/a	-1.0	n/a	n/a	n/a	n/a	n/a	n/a	n/a	n/a	ITI	poldrack-single-stim	s641	False	0
128.348	3.163	131.511	2.735537707627402	draw_card	3.163	columbia_card_task_fmri	9.0	0.9375	89.0	-100.0	0.0625	16.0	1.0	1.0	-4.936358553894312	3.163	1.0	stim	poldrack-single-stim	s641	False	0
132.269	1.5	131.518	n/a	-1.0	2.386	columbia_card_task_fmri	n/a	n/a	-1.0	n/a	n/a	n/a	n/a	n/a	n/a	n/a	n/a	ITI	poldrack-single-stim	s641	False	0
133.908	0.418	134.326	3.673037707627402	draw_card	0.418	columbia_card_task_fmri	15.0	0.875	89.0	-80.0	0.125	16.0	1.0	2.0	0.0963275956598046	0.418	n/a	stim	poldrack-single-stim	s641	False	1
134.328	0.946	135.274	2.881371040960736	draw_card	0.946	columbia_card_task_fmri	15.0	0.8666666666666667	89.0	-80.0	0.1333333333333333	16.0	2.0	2.0	0.971691477054172	0.946	n/a	stim	poldrack-single-stim	s641	False	1
135.276	0.764	136.04	1.9766091361988325	draw_card	0.764	columbia_card_task_fmri	15.0	0.8571428571428572	89.0	-80.0	0.1428571428571428	16.0	3.0	2.0	1.9208435422290933	0.764	n/a	stim	poldrack-single-stim	s641	False	1
136.043	0.937	136.98	0.9326530922427853	draw_card	0.937	columbia_card_task_fmri	15.0	0.8461538461538461	89.0	-80.0	0.1538461538461538	16.0	4.0	2.0	2.9537475072012853	0.937	n/a	stim	poldrack-single-stim	s641	False	1
136.982	1.916	138.898	-0.2852956257059302	draw_card	1.916	columbia_card_task_fmri	15.0	0.8333333333333334	89.0	-80.0	0.1666666666666666	16.0	5.0	2.0	4.081902383539436	1.916	5.0	stim	poldrack-single-stim	s641	False	0
139.653	1.5	138.902	n/a	-1.0	2.318	columbia_card_task_fmri	n/a	n/a	-1.0	n/a	n/a	n/a	n/a	n/a	n/a	n/a	n/a	ITI	poldrack-single-stim	s641	False	0
141.225	2.038	143.263	5.798037707627402	draw_card	2.038	columbia_card_task_fmri	16.0	0.875	89.0	-70.0	0.125	16.0	1.0	2.0	-2.8796425458358854	2.038	n/a	stim	poldrack-single-stim	s641	False	1
143.266	0.745	144.011	5.081371040960735	draw_card	0.745	columbia_card_task_fmri	16.0	0.8666666666666667	89.0	-70.0	0.1333333333333333	16.0	2.0	2.0	-2.0872336984684203	0.745	2.0	stim	poldrack-single-stim	s641	False	0
144.769	1.5	144.018	n/a	-1.0	2.25	columbia_card_task_fmri	n/a	n/a	-1.0	n/a	n/a	n/a	n/a	n/a	n/a	n/a	n/a	ITI	poldrack-single-stim	s641	False	0
146.271	0.45	146.721	7.110537707627402	draw_card	0.45	columbia_card_task_fmri	30.0	0.6875	89.0	-45.0	0.3125	16.0	1.0	5.0	3.441001342404697	0.45	1.0	stim	poldrack-single-stim	s641	False	0
147.478	1.5	146.727	n/a	-1.0	2.25	columbia_card_task_fmri	n/a	n/a	-1.0	n/a	n/a	n/a	n/a	n/a	n/a	n/a	n/a	ITI	poldrack-single-stim	s641	False	0
148.982	3.427	152.409	-1.1186289590392642	draw_card	3.427	columbia_card_task_fmri	13.0	0.8333333333333334	89.0	-75.0	0.1666666666666666	6.0	1.0	1.0	1.4734937471857634	3.427	1.0	stim	poldrack-single-stim	s641	False	0
153.167	1.5	152.416	n/a	-1.0	2.454	columbia_card_task_fmri	n/a	n/a	-1.0	n/a	n/a	n/a	n/a	n/a	n/a	n/a	n/a	ITI	poldrack-single-stim	s641	False	0
154.874	1.753	156.627	0.5480377076274037	end_round	1.753	columbia_card_task_fmri	14.0	0.8333333333333334	71.0	-70.0	0.1666666666666666	6.0	1.0	1.0	-0.0170002361422945	1.753	0.0	stim	poldrack-single-stim	s641	False	1
157.384	1.5	156.633	n/a	-1.0	2.454	columbia_card_task_fmri	n/a	n/a	-1.0	n/a	n/a	n/a	n/a	n/a	n/a	n/a	n/a	ITI	poldrack-single-stim	s641	False	0
159.091	1.344	160.435	0.5480377076274037	draw_card	1.344	columbia_card_task_fmri	16.0	0.8333333333333334	89.0	-80.0	0.1666666666666666	6.0	1.0	1.0	4.454536203923723	1.344	n/a	stim	poldrack-single-stim	s641	False	1
160.44	0.806	161.246	-2.6519622923725974	end_round	0.806	columbia_card_task_fmri	16.0	0.8	71.0	-80.0	0.2	6.0	2.0	1.0	7.0771619039003895	0.806	1.0	stim	poldrack-single-stim	s641	False	1
162.002	1.5	161.251	n/a	-1.0	2.522	columbia_card_task_fmri	n/a	n/a	-1.0	n/a	n/a	n/a	n/a	n/a	n/a	n/a	n/a	ITI	poldrack-single-stim	s641	False	0
163.777	1.242	165.019	3.048037707627404	draw_card	1.242	columbia_card_task_fmri	17.0	0.8333333333333334	89.0	-70.0	0.1666666666666666	6.0	1.0	1.0	1.100868372434853	1.242	1.0	stim	poldrack-single-stim	s641	False	0
165.774	1.5	165.023	n/a	-1.0	2.386	columbia_card_task_fmri	n/a	n/a	-1.0	n/a	n/a	n/a	n/a	n/a	n/a	n/a	n/a	ITI	poldrack-single-stim	s641	False	0
167.413	1.711	169.124	3.048037707627402	draw_card	1.711	columbia_card_task_fmri	25.0	0.75	89.0	-65.0	0.25	8.0	1.0	2.0	7.648247768722889	1.711	n/a	stim	poldrack-single-stim	s641	False	1
169.127	1.323	170.45	-0.1662480066583098	end_round	1.323	columbia_card_task_fmri	25.0	0.7142857142857143	71.0	-65.0	0.2857142857142857	8.0	2.0	2.0	9.334800390233916	1.323	1.0	stim	poldrack-single-stim	s641	False	1
171.206	1.5	170.455	n/a	-1.0	2.454	columbia_card_task_fmri	n/a	n/a	-1.0	n/a	n/a	n/a	n/a	n/a	n/a	n/a	n/a	ITI	poldrack-single-stim	s641	False	0
172.914	1.372	174.286	3.048037707627402	draw_card	1.372	columbia_card_task_fmri	30.0	0.75	89.0	-80.0	0.25	8.0	1.0	2.0	16.30780126865549	1.372	n/a	stim	poldrack-single-stim	s641	False	1
174.289	0.85	175.139	-0.8805337209440216	end_round	0.85	columbia_card_task_fmri	30.0	0.7142857142857143	71.0	-80.0	0.2857142857142857	8.0	2.0	2.0	18.36920793684841	0.85	1.0	stim	poldrack-single-stim	s641	False	1
175.897	1.5	175.146	n/a	-1.0	2.522	columbia_card_task_fmri	n/a	n/a	-1.0	n/a	n/a	n/a	n/a	n/a	n/a	n/a	n/a	ITI	poldrack-single-stim	s641	False	0
177.671	1.929	179.6	2.748037707627403	draw_card	1.929	columbia_card_task_fmri	13.0	0.9	89.0	-95.0	0.1	10.0	1.0	1.0	1.0778859838514592	1.929	n/a	stim	poldrack-single-stim	s641	False	1
179.603	0.485	180.088	1.548037707627402	draw_card	0.485	columbia_card_task_fmri	13.0	0.8888888888888888	89.0	-95.0	0.1111111111111111	10.0	2.0	1.0	2.618801069714188	0.485	n/a	stim	poldrack-single-stim	s641	False	1
180.09	0.354	180.444	0.0480377076274018	draw_card	0.354	columbia_card_task_fmri	13.0	0.875	89.0	-95.0	0.125	10.0	3.0	1.0	4.395098247897835	0.354	n/a	stim	poldrack-single-stim	s641	False	1
180.447	0.13	180.577	-1.8805337209440247	draw_card	0.13	columbia_card_task_fmri	13.0	0.8571428571428572	89.0	-95.0	0.1428571428571428	10.0	4.0	1.0	6.469352257146554	0.13	n/a	stim	poldrack-single-stim	s641	False	1
180.58	0.877	181.457	-4.451962292372596	end_round	0.877	columbia_card_task_fmri	13.0	0.8333333333333334	71.0	-95.0	0.1666666666666666	10.0	5.0	1.0	8.92620584847377	0.877	4.0	stim	poldrack-single-stim	s641	False	1
182.214	1.5	181.463	n/a	-1.0	2.522	columbia_card_task_fmri	n/a	n/a	-1.0	n/a	n/a	n/a	n/a	n/a	n/a	n/a	n/a	ITI	poldrack-single-stim	s641	False	0
183.99	0.974	184.964	4.1480377076274015	draw_card	0.974	columbia_card_task_fmri	14.0	0.9	89.0	-90.0	0.1	10.0	1.0	1.0	-0.121935788236339	0.974	n/a	stim	poldrack-single-stim	s641	False	1
184.966	1.325	186.291	2.9924821520718448	draw_card	1.325	columbia_card_task_fmri	14.0	0.8888888888888888	89.0	-90.0	0.1111111111111111	10.0	2.0	1.0	1.3618924862933852	1.325	n/a	stim	poldrack-single-stim	s641	False	1
186.293	0.99	187.283	1.548037707627402	draw_card	0.99	columbia_card_task_fmri	14.0	0.875	89.0	-90.0	0.125	10.0	3.0	1.0	3.0723842719143093	0.99	n/a	stim	poldrack-single-stim	s641	False	1
187.286	1.06	188.346	-0.309105149515454	end_round	1.06	columbia_card_task_fmri	14.0	0.8571428571428572	71.0	-90.0	0.1428571428571428	10.0	4.0	1.0	5.069796640329358	1.06	3.0	stim	poldrack-single-stim	s641	False	1
189.104	1.5	188.353	n/a	-1.0	2.59	columbia_card_task_fmri	n/a	n/a	-1.0	n/a	n/a	n/a	n/a	n/a	n/a	n/a	n/a	ITI	poldrack-single-stim	s641	False	0
190.948	0.648	191.596	-0.6519622923725974	draw_card	0.648	columbia_card_task_fmri	16.0	0.8	89.0	-70.0	0.2	10.0	1.0	2.0	3.077616564018946	0.648	n/a	stim	poldrack-single-stim	s641	False	1
191.599	1.306	192.905	-2.563073403483709	draw_card	1.306	columbia_card_task_fmri	16.0	0.7777777777777778	89.0	-70.0	0.2222222222222222	10.0	2.0	2.0	4.431066348285974	1.306	n/a	stim	poldrack-single-stim	s641	False	1
192.908	0.92	193.828	-4.951962292372598	end_round	0.92	columbia_card_task_fmri	16.0	0.75	71.0	-70.0	0.25	10.0	3.0	2.0	5.916376162732597	0.92	2.0	stim	poldrack-single-stim	s641	False	1
194.586	1.5	193.835	n/a	-1.0	2.454	columbia_card_task_fmri	n/a	n/a	-1.0	n/a	n/a	n/a	n/a	n/a	n/a	n/a	n/a	ITI	poldrack-single-stim	s641	False	0
196.294	0.662	196.956	-1.3686289590392642	draw_card	0.662	columbia_card_task_fmri	7.0	0.9166666666666666	89.0	-100.0	0.0833333333333333	12.0	1.0	1.0	-1.7484333733437545	0.662	n/a	stim	poldrack-single-stim	s641	False	1
196.959	1.639	198.598	-2.1792350196453265	draw_card	1.639	columbia_card_task_fmri	7.0	0.9090909090909092	89.0	-100.0	0.0909090909090909	12.0	2.0	1.0	-0.5615297682925089	1.639	n/a	stim	poldrack-single-stim	s641	False	1
198.601	0.855	199.456	-3.1519622923725983	draw_card	0.855	columbia_card_task_fmri	7.0	0.9	89.0	-100.0	0.1	12.0	3.0	1.0	0.7779292918432574	0.855	3.0	stim	poldrack-single-stim	s641	False	0
200.214	1.5	199.463	n/a	-1.0	2.318	columbia_card_task_fmri	n/a	n/a	-1.0	n/a	n/a	n/a	n/a	n/a	n/a	n/a	n/a	ITI	poldrack-single-stim	s641	False	0
201.786	0.581	202.367	-1.1186289590392624	draw_card	0.581	columbia_card_task_fmri	14.0	0.8333333333333334	89.0	-80.0	0.1666666666666666	12.0	1.0	2.0	3.709269502896497	0.581	n/a	stim	poldrack-single-stim	s641	False	1
202.37	4.021	206.391	-2.542871383281692	draw_card	4.021	columbia_card_task_fmri	14.0	0.8181818181818181	89.0	-80.0	0.1818181818181818	12.0	2.0	2.0	4.932686353811491	4.021	n/a	stim	poldrack-single-stim	s641	False	1
206.394	0.919	207.313	-4.251962292372597	end_round	0.919	columbia_card_task_fmri	14.0	0.8	71.0	-80.0	0.2	12.0	3.0	2.0	6.277245098290955	0.919	2.0	stim	poldrack-single-stim	s641	False	1
208.071	1.5	207.32	n/a	-1.0	2.25	columbia_card_task_fmri	n/a	n/a	-1.0	n/a	n/a	n/a	n/a	n/a	n/a	n/a	n/a	ITI	poldrack-single-stim	s641	False	0
209.575	4.133	213.708	0.5480377076274019	draw_card	4.133	columbia_card_task_fmri	15.0	0.8333333333333334	89.0	-75.0	0.1666666666666666	12.0	1.0	2.0	2.218748004071884	4.133	n/a	stim	poldrack-single-stim	s641	False	1
213.712	0.64	214.352	-0.8155986560089632	draw_card	0.64	columbia_card_task_fmri	15.0	0.8181818181818181	89.0	-75.0	0.1818181818181818	12.0	2.0	2.0	3.390091982028146	0.64	2.0	stim	poldrack-single-stim	s641	False	0
215.11	1.5	214.359	n/a	-1.0	2.658	columbia_card_task_fmri	n/a	n/a	-1.0	n/a	n/a	n/a	n/a	n/a	n/a	n/a	n/a	ITI	poldrack-single-stim	s641	False	0
217.022	0.566	217.588	-0.4519622923725981	draw_card	0.566	columbia_card_task_fmri	15.0	0.8	89.0	-65.0	0.2	15.0	1.0	3.0	0.6779439082510095	0.566	n/a	stim	poldrack-single-stim	s641	False	1
217.591	2.487	220.078	-1.5948194352297405	draw_card	2.487	columbia_card_task_fmri	15.0	0.7857142857142857	89.0	-65.0	0.2142857142857142	15.0	2.0	3.0	1.5038981021909876	2.487	n/a	stim	poldrack-single-stim	s641	False	1
220.081	0.775	220.856	-2.9135007539110616	draw_card	0.775	columbia_card_task_fmri	15.0	0.7692307692307692	89.0	-65.0	0.2307692307692307	15.0	3.0	3.0	2.3837099693472297	0.775	3.0	stim	poldrack-single-stim	s641	False	0
221.612	1.5	220.861	n/a	-1.0	2.454	columbia_card_task_fmri	n/a	n/a	-1.0	n/a	n/a	n/a	n/a	n/a	n/a	n/a	n/a	ITI	poldrack-single-stim	s641	False	0
223.319	0.33	223.649	-1.201962292372598	draw_card	0.33	columbia_card_task_fmri	14.0	0.8125	89.0	-70.0	0.1875	16.0	1.0	3.0	1.4640708847183106	0.33	n/a	stim	poldrack-single-stim	s641	False	1
223.653	1.545	225.198	-2.251962292372597	draw_card	1.545	columbia_card_task_fmri	14.0	0.8	89.0	-70.0	0.2	16.0	2.0	3.0	2.2777204838684995	1.545	2.0	stim	poldrack-single-stim	s641	False	0
225.956	1.5	225.205	n/a	-1.0	2.386	columbia_card_task_fmri	n/a	n/a	-1.0	n/a	n/a	n/a	n/a	n/a	n/a	n/a	n/a	ITI	poldrack-single-stim	s641	False	0
227.596	4.163	231.759	-1.264462292372598	end_round	4.163	columbia_card_task_fmri	11.0	0.6875	71.0	-30.0	0.3125	16.0	1.0	5.0	-12.31483950525621	4.163	0.0	stim	poldrack-single-stim	s641	False	1
232.515	1.5	231.764	n/a	-1.0	2.59	columbia_card_task_fmri	n/a	n/a	-1.0	n/a	n/a	n/a	n/a	n/a	n/a	n/a	n/a	ITI	poldrack-single-stim	s641	False	0
234.359	1.89	236.249	3.548037707627402	draw_card	1.89	columbia_card_task_fmri	15.0	0.8666666666666667	89.0	-75.0	0.1333333333333333	15.0	1.0	2.0	-0.7277234085032305	1.89	n/a	stim	poldrack-single-stim	s641	False	1
236.253	1.055	237.308	2.690894850484546	draw_card	1.055	columbia_card_task_fmri	15.0	0.8571428571428572	89.0	-75.0	0.1428571428571428	15.0	2.0	2.0	0.1714589249622768	1.055	n/a	stim	poldrack-single-stim	s641	False	1
237.311	1.51	238.821	1.7018838614735552	draw_card	1.51	columbia_card_task_fmri	15.0	0.8461538461538461	89.0	-75.0	0.1538461538461538	15.0	3.0	2.0	1.1499847999151172	1.51	n/a	stim	poldrack-single-stim	s641	False	1
238.825	1.312	240.137	0.5480377076274019	end_round	1.312	columbia_card_task_fmri	15.0	0.8333333333333334	71.0	-75.0	0.1666666666666666	15.0	4.0	2.0	2.218748004071884	1.312	3.0	stim	poldrack-single-stim	s641	False	1
240.894	1.5	240.143	n/a	-1.0	2.318	columbia_card_task_fmri	n/a	n/a	-1.0	n/a	n/a	n/a	n/a	n/a	n/a	n/a	n/a	ITI	poldrack-single-stim	s641	False	0
242.465	2.196	244.661	5.281371040960736	draw_card	2.196	columbia_card_task_fmri	17.0	0.8666666666666667	89.0	-75.0	0.1333333333333333	15.0	1.0	2.0	-0.0479608224501291	2.196	n/a	stim	poldrack-single-stim	s641	False	1
244.665	0.684	245.349	4.405180564770261	draw_card	0.684	columbia_card_task_fmri	17.0	0.8571428571428572	89.0	-75.0	0.1428571428571428	15.0	2.0	2.0	0.8712094997958459	0.684	n/a	stim	poldrack-single-stim	s641	False	1
245.352	0.896	246.248	3.3941915537812486	draw_card	0.896	columbia_card_task_fmri	17.0	0.8461538461538461	89.0	-75.0	0.1538461538461538	15.0	3.0	2.0	1.8714867092913248	0.896	3.0	stim	poldrack-single-stim	s641	False	0
247.007	1.5	246.256	n/a	-1.0	2.59	columbia_card_task_fmri	n/a	n/a	-1.0	n/a	n/a	n/a	n/a	n/a	n/a	n/a	n/a	ITI	poldrack-single-stim	s641	False	0
248.851	0.545	249.396	0.8605377076274019	draw_card	0.545	columbia_card_task_fmri	2.0	0.9375	89.0	-25.0	0.0625	16.0	1.0	1.0	-24.768152064991614	0.545	n/a	stim	poldrack-single-stim	s641	False	1
249.399	0.467	249.866	0.7480377076274018	draw_card	0.467	columbia_card_task_fmri	2.0	0.9333333333333332	89.0	-25.0	0.0666666666666666	16.0	2.0	1.0	-24.5695047282901	0.467	n/a	stim	poldrack-single-stim	s641	False	1
249.87	1.296	251.166	0.6194662790559735	draw_card	1.296	columbia_card_task_fmri	2.0	0.9285714285714286	89.0	-25.0	0.0714285714285714	16.0	3.0	1.0	-24.351622397618208	1.296	n/a	stim	poldrack-single-stim	s641	False	1
251.169	2.58	253.749	0.471114630704325	draw_card	2.58	columbia_card_task_fmri	2.0	0.9230769230769232	89.0	-25.0	0.0769230769230769	16.0	4.0	1.0	-24.111233489392607	2.58	n/a	stim	poldrack-single-stim	s641	False	1
253.752	1.18	254.932	0.2980377076274021	draw_card	1.18	columbia_card_task_fmri	2.0	0.9166666666666666	89.0	-25.0	0.0833333333333333	16.0	5.0	1.0	-23.84424603209304	1.18	n/a	stim	poldrack-single-stim	s641	False	1
254.935	1.002	255.937	0.093492253081947	draw_card	1.002	columbia_card_task_fmri	2.0	0.9090909090909092	89.0	-25.0	0.0909090909090909	16.0	6.0	1.0	-23.545471163931573	1.002	n/a	stim	poldrack-single-stim	s641	False	1
255.94	0.843	256.783	-0.151962292372598	end_round	0.843	columbia_card_task_fmri	2.0	0.9	71.0	-25.0	0.1	16.0	7.0	1.0	-23.20822997752564	0.843	6.0	stim	poldrack-single-stim	s641	False	1
257.541	1.5	256.79	n/a	-1.0	2.386	columbia_card_task_fmri	n/a	n/a	-1.0	n/a	n/a	n/a	n/a	n/a	n/a	n/a	n/a	ITI	poldrack-single-stim	s641	False	0
259.181	1.098	260.279	3.048037707627402	draw_card	1.098	columbia_card_task_fmri	9.0	0.9375	89.0	-95.0	0.0625	16.0	1.0	1.0	-6.146392305047598	1.098	n/a	stim	poldrack-single-stim	s641	False	1
260.282	0.607	260.889	2.614704374294069	draw_card	0.607	columbia_card_task_fmri	9.0	0.9333333333333332	89.0	-95.0	0.0666666666666666	16.0	2.0	1.0	-5.378802657602186	0.607	n/a	stim	poldrack-single-stim	s641	False	1
260.893	0.459	261.352	2.119466279055974	draw_card	0.459	columbia_card_task_fmri	9.0	0.9285714285714286	89.0	-95.0	0.0714285714285714	16.0	3.0	1.0	-4.537047255958594	0.459	n/a	stim	poldrack-single-stim	s641	False	1
261.355	0.458	261.813	1.548037707627402	draw_card	0.458	columbia_card_task_fmri	9.0	0.9230769230769232	89.0	-95.0	0.0769230769230769	16.0	4.0	1.0	-3.608517362776336	0.458	n/a	stim	poldrack-single-stim	s641	False	1
261.817	0.482	262.299	0.8813710409607358	draw_card	0.482	columbia_card_task_fmri	9.0	0.9166666666666666	89.0	-95.0	0.0833333333333333	16.0	5.0	1.0	-2.5774431292095628	0.482	n/a	stim	poldrack-single-stim	s641	False	1
262.302	0.509	262.811	0.0934922530819468	draw_card	0.509	columbia_card_task_fmri	9.0	0.9090909090909092	89.0	-95.0	0.0909090909090909	16.0	6.0	1.0	-1.423828337072365	0.509	n/a	stim	poldrack-single-stim	s641	False	1
262.814	0.515	263.329	-0.8519622923725985	draw_card	0.515	columbia_card_task_fmri	9.0	0.9	89.0	-95.0	0.1	16.0	7.0	1.0	-0.121935788236339	0.515	n/a	stim	poldrack-single-stim	s641	False	1
263.333	0.588	263.921	-2.007517847928153	draw_card	0.588	columbia_card_task_fmri	9.0	0.8888888888888888	89.0	-95.0	0.1111111111111111	16.0	8.0	1.0	1.3618924862933852	0.588	n/a	stim	poldrack-single-stim	s641	False	1
263.925	1.679	265.604	-3.451962292372598	end_round	1.679	columbia_card_task_fmri	9.0	0.875	71.0	-95.0	0.125	16.0	9.0	1.0	3.0723842719143093	1.679	8.0	stim	poldrack-single-stim	s641	False	1
266.357	1.5	265.606	n/a	-1.0	2.318	columbia_card_task_fmri	n/a	n/a	-1.0	n/a	n/a	n/a	n/a	n/a	n/a	n/a	n/a	ITI	poldrack-single-stim	s641	False	0
267.93	1.117	269.047	4.610537707627402	draw_card	1.117	columbia_card_task_fmri	11.0	0.9375	89.0	-100.0	0.0625	16.0	1.0	1.0	-4.452338155424073	1.117	n/a	stim	poldrack-single-stim	s641	False	1
269.051	0.363	269.414	4.148037707627402	draw_card	0.363	columbia_card_task_fmri	11.0	0.9333333333333332	89.0	-100.0	0.0666666666666666	16.0	2.0	1.0	-3.633060818804545	0.363	n/a	stim	poldrack-single-stim	s641	False	1
269.417	0.404	269.821	3.619466279055975	draw_card	0.404	columbia_card_task_fmri	11.0	0.9285714285714286	89.0	-100.0	0.0714285714285714	16.0	3.0	1.0	-2.734625095130209	0.404	n/a	stim	poldrack-single-stim	s641	False	1
269.826	0.398	270.224	3.0095761691658645	draw_card	0.398	columbia_card_task_fmri	11.0	0.9230769230769232	89.0	-100.0	0.0769230769230769	16.0	4.0	1.0	-1.743573515442602	0.398	n/a	stim	poldrack-single-stim	s641	False	1
270.228	0.367	270.595	2.298037707627402	draw_card	0.367	columbia_card_task_fmri	11.0	0.9166666666666666	89.0	-100.0	0.0833333333333333	16.0	5.0	1.0	-0.6430747218201311	0.367	n/a	stim	poldrack-single-stim	s641	False	1
270.599	0.41	271.009	1.4571286167183102	draw_card	0.41	columbia_card_task_fmri	11.0	0.9090909090909092	89.0	-100.0	0.0909090909090909	16.0	6.0	1.0	0.5882134924953171	0.41	n/a	stim	poldrack-single-stim	s641	False	1
271.013	0.372	271.385	0.4480377076274022	draw_card	0.372	columbia_card_task_fmri	11.0	0.9	89.0	-100.0	0.1	16.0	7.0	1.0	1.9777607408496396	0.372	n/a	stim	poldrack-single-stim	s641	False	1
271.389	0.456	271.845	-0.785295625705932	draw_card	0.456	columbia_card_task_fmri	11.0	0.8888888888888888	89.0	-100.0	0.1111111111111111	16.0	8.0	1.0	3.5614905528434733	0.456	n/a	stim	poldrack-single-stim	s641	False	1
271.849	1.346	273.195	-2.326962292372598	draw_card	1.346	columbia_card_task_fmri	11.0	0.875	89.0	-100.0	0.125	16.0	9.0	1.0	5.387141375572696	1.346	n/a	stim	poldrack-single-stim	s641	False	1
273.2	2.122	275.322	-4.309105149515454	draw_card	2.122	columbia_card_task_fmri	11.0	0.8571428571428572	89.0	-100.0	0.1428571428571428	16.0	10.0	1.0	7.519026196034275	2.122	n/a	stim	poldrack-single-stim	s641	False	1
275.325	0.952	276.277	-6.9519622923725946	end_round	0.952	columbia_card_task_fmri	11.0	0.8333333333333334	71.0	-100.0	0.1666666666666666	16.0	11.0	1.0	10.044139011142128	0.952	10.0	stim	poldrack-single-stim	s641	False	1
277.035	1.5	276.284	n/a	-1.0	2.318	columbia_card_task_fmri	n/a	n/a	-1.0	n/a	n/a	n/a	n/a	n/a	n/a	n/a	n/a	ITI	poldrack-single-stim	s641	False	0
278.608	0.741	279.349	5.173037707627402	draw_card	0.741	columbia_card_task_fmri	16.0	0.875	89.0	-75.0	0.125	16.0	1.0	2.0	-1.2263380095581375	0.741	n/a	stim	poldrack-single-stim	s641	False	1
279.353	0.739	280.092	4.414704374294069	draw_card	0.739	columbia_card_task_fmri	16.0	0.8666666666666667	89.0	-75.0	0.1333333333333333	16.0	2.0	2.0	-0.3878427015058996	0.739	n/a	stim	poldrack-single-stim	s641	False	1
280.095	0.759	280.854	3.548037707627404	draw_card	0.759	columbia_card_task_fmri	16.0	0.8571428571428572	89.0	-75.0	0.1428571428571428	16.0	3.0	2.0	0.5213336430693261	0.759	n/a	stim	poldrack-single-stim	s641	False	1
280.858	1.027	281.885	2.548037707627402	draw_card	1.027	columbia_card_task_fmri	16.0	0.8461538461538461	89.0	-75.0	0.1538461538461538	16.0	4.0	2.0	1.5107352024372176	1.027	n/a	stim	poldrack-single-stim	s641	False	1
281.889	0.49	282.379	1.3813710409607358	draw_card	0.49	columbia_card_task_fmri	16.0	0.8333333333333334	89.0	-75.0	0.1666666666666666	16.0	5.0	2.0	2.591376809142304	0.49	5.0	stim	poldrack-single-stim	s641	False	0
283.137	1.5	282.386	n/a	-1.0	2.318	columbia_card_task_fmri	n/a	n/a	-1.0	n/a	n/a	n/a	n/a	n/a	n/a	n/a	n/a	ITI	poldrack-single-stim	s641	False	0
284.71	0.347	285.057	5.423037707627402	draw_card	0.347	columbia_card_task_fmri	17.0	0.875	89.0	-80.0	0.125	16.0	1.0	2.0	0.7576668932074497	0.347	n/a	stim	poldrack-single-stim	s641	False	1
285.06	0.767	285.827	4.61470437429407	draw_card	0.767	columbia_card_task_fmri	17.0	0.8666666666666667	89.0	-80.0	0.1333333333333333	16.0	2.0	2.0	1.6514648853499736	0.767	2.0	stim	poldrack-single-stim	s641	False	0
286.585	1.5	285.834	n/a	-1.0	2.386	columbia_card_task_fmri	n/a	n/a	-1.0	n/a	n/a	n/a	n/a	n/a	n/a	n/a	n/a	ITI	poldrack-single-stim	s641	False	0
299.233	2.677	301.91	-0.2852956257059302	end_round	2.677	columbia_card_task_fmri	13.0	0.8333333333333334	71.0	-70.0	0.1666666666666666	6.0	1.0	1.0	-0.3896204495716269	2.677	0.0	stim	poldrack-single-stim	s641	False	1
302.668	1.5	301.917	n/a	-1.0	2.25	columbia_card_task_fmri	n/a	n/a	-1.0	n/a	n/a	n/a	n/a	n/a	n/a	n/a	n/a	ITI	poldrack-single-stim	s641	False	0
304.171	3.755	307.926	-0.2852956257059302	draw_card	3.755	columbia_card_task_fmri	15.0	0.8333333333333334	89.0	-80.0	0.1666666666666666	6.0	1.0	1.0	4.081902383539436	3.755	n/a	stim	poldrack-single-stim	s641	False	1
307.93	0.882	308.812	-3.451962292372598	end_round	0.882	columbia_card_task_fmri	15.0	0.8	71.0	-80.0	0.2	6.0	2.0	1.0	6.677203063298755	0.882	1.0	stim	poldrack-single-stim	s641	False	1
309.57	1.5	308.819	n/a	-1.0	2.386	columbia_card_task_fmri	n/a	n/a	-1.0	n/a	n/a	n/a	n/a	n/a	n/a	n/a	n/a	ITI	poldrack-single-stim	s641	False	0
311.208	0.757	311.965	1.3813710409607358	draw_card	0.757	columbia_card_task_fmri	16.0	0.8333333333333334	89.0	-75.0	0.1666666666666666	6.0	1.0	1.0	2.591376809142304	0.757	n/a	stim	poldrack-single-stim	s641	False	1
311.968	1.32	313.288	-1.6519622923725974	end_round	1.32	columbia_card_task_fmri	16.0	0.8	71.0	-75.0	0.2	6.0	2.0	1.0	5.0773767454244805	1.32	1.0	stim	poldrack-single-stim	s641	False	1
314.046	1.5	313.295	n/a	-1.0	2.59	columbia_card_task_fmri	n/a	n/a	-1.0	n/a	n/a	n/a	n/a	n/a	n/a	n/a	n/a	ITI	poldrack-single-stim	s641	False	0
315.89	1.877	317.767	2.548037707627402	draw_card	1.877	columbia_card_task_fmri	21.0	0.75	89.0	-55.0	0.25	8.0	1.0	2.0	1.5867796591933327	1.877	n/a	stim	poldrack-single-stim	s641	False	1
317.77	0.835	318.605	-0.1662480066583116	end_round	0.835	columbia_card_task_fmri	21.0	0.7142857142857143	71.0	-55.0	0.2857142857142857	8.0	2.0	2.0	3.0109253536771448	0.835	1.0	stim	poldrack-single-stim	s641	False	1
319.364	1.5	318.613	n/a	-1.0	2.658	columbia_card_task_fmri	n/a	n/a	-1.0	n/a	n/a	n/a	n/a	n/a	n/a	n/a	n/a	ITI	poldrack-single-stim	s641	False	0
321.276	2.105	323.381	3.798037707627402	end_round	2.105	columbia_card_task_fmri	26.0	0.75	71.0	-65.0	0.25	8.0	1.0	2.0	8.081218131415312	2.105	0.0	stim	poldrack-single-stim	s641	False	1
324.139	1.5	323.388	n/a	-1.0	2.386	columbia_card_task_fmri	n/a	n/a	-1.0	n/a	n/a	n/a	n/a	n/a	n/a	n/a	n/a	ITI	poldrack-single-stim	s641	False	0
325.78	1.216	326.996	-1.1186289590392642	end_round	1.216	columbia_card_task_fmri	15.0	0.7777777777777778	71.0	-60.0	0.2222222222222222	9.0	1.0	2.0	-0.1414545523061754	1.216	0.0	stim	poldrack-single-stim	s641	False	1
327.754	1.5	327.003	n/a	-1.0	2.386	columbia_card_task_fmri	n/a	n/a	-1.0	n/a	n/a	n/a	n/a	n/a	n/a	n/a	n/a	ITI	poldrack-single-stim	s641	False	0
329.395	1.222	330.617	3.248037707627403	draw_card	1.222	columbia_card_task_fmri	13.0	0.9	89.0	-90.0	0.1	10.0	1.0	1.0	-0.4218890687988228	1.222	n/a	stim	poldrack-single-stim	s641	False	1
330.622	0.484	331.106	2.1035932631829573	draw_card	0.484	columbia_card_task_fmri	13.0	0.8888888888888888	89.0	-90.0	0.1111111111111111	10.0	2.0	1.0	1.0476674047925911	0.484	n/a	stim	poldrack-single-stim	s641	False	1
331.11	1.069	332.179	0.6730377076274019	draw_card	1.069	columbia_card_task_fmri	13.0	0.875	89.0	-90.0	0.125	10.0	3.0	1.0	2.741707739675157	1.069	3.0	stim	poldrack-single-stim	s641	False	0
332.937	1.5	332.186	n/a	-1.0	2.25	columbia_card_task_fmri	n/a	n/a	-1.0	n/a	n/a	n/a	n/a	n/a	n/a	n/a	n/a	ITI	poldrack-single-stim	s641	False	0
334.442	0.722	335.164	4.548037707627402	draw_card	0.722	columbia_card_task_fmri	15.0	0.9	89.0	-95.0	0.1	10.0	1.0	1.0	1.6778017296258838	0.722	n/a	stim	poldrack-single-stim	s641	False	1
335.167	2.283	337.45	3.3258154854051787	end_round	2.283	columbia_card_task_fmri	15.0	0.8888888888888888	71.0	-95.0	0.1111111111111111	10.0	2.0	1.0	3.247260000674004	2.283	1.0	stim	poldrack-single-stim	s641	False	1
338.209	1.5	337.458	n/a	-1.0	2.318	columbia_card_task_fmri	n/a	n/a	-1.0	n/a	n/a	n/a	n/a	n/a	n/a	n/a	n/a	ITI	poldrack-single-stim	s641	False	0
339.781	0.854	340.635	0.3480377076274026	draw_card	0.854	columbia_card_task_fmri	16.0	0.8	89.0	-65.0	0.2	10.0	1.0	2.0	1.0778859838514592	0.854	n/a	stim	poldrack-single-stim	s641	False	1
340.639	0.994	341.633	-1.4519622923725963	draw_card	0.994	columbia_card_task_fmri	16.0	0.7777777777777778	89.0	-65.0	0.2222222222222222	10.0	2.0	2.0	2.352627023698311	0.994	2.0	stim	poldrack-single-stim	s641	False	0
342.39	1.5	341.639	n/a	-1.0	2.25	columbia_card_task_fmri	n/a	n/a	-1.0	n/a	n/a	n/a	n/a	n/a	n/a	n/a	n/a	ITI	poldrack-single-stim	s641	False	0
343.895	1.308	345.203	-0.951962292372598	end_round	1.308	columbia_card_task_fmri	7.0	0.9166666666666666	71.0	-95.0	0.0833333333333333	12.0	1.0	1.0	-3.130111515435693	1.308	0.0	stim	poldrack-single-stim	s641	False	1
345.962	1.5	345.211	n/a	-1.0	2.25	columbia_card_task_fmri	n/a	n/a	-1.0	n/a	n/a	n/a	n/a	n/a	n/a	n/a	n/a	ITI	poldrack-single-stim	s641	False	0
347.466	0.942	348.408	-0.2852956257059302	draw_card	0.942	columbia_card_task_fmri	14.0	0.8333333333333334	89.0	-75.0	0.1666666666666666	12.0	1.0	2.0	1.8461203041974412	0.942	n/a	stim	poldrack-single-stim	s641	False	1
348.412	0.607	349.019	-1.6337804741907815	draw_card	0.607	columbia_card_task_fmri	14.0	0.8181818181818181	89.0	-75.0	0.1818181818181818	12.0	2.0	2.0	3.0044459737097213	0.607	2.0	stim	poldrack-single-stim	s641	False	0
349.776	1.5	349.025	n/a	-1.0	2.386	columbia_card_task_fmri	n/a	n/a	-1.0	n/a	n/a	n/a	n/a	n/a	n/a	n/a	n/a	ITI	poldrack-single-stim	s641	False	0
351.417	1.621	353.038	1.3813710409607358	draw_card	1.621	columbia_card_task_fmri	15.0	0.8333333333333334	89.0	-70.0	0.1666666666666666	12.0	1.0	2.0	0.355621336574039	1.621	n/a	stim	poldrack-single-stim	s641	False	1
353.042	0.835	353.877	0.093492253081945	draw_card	0.835	columbia_card_task_fmri	15.0	0.8181818181818181	89.0	-70.0	0.1818181818181818	12.0	2.0	2.0	1.4618733733206355	0.835	n/a	stim	poldrack-single-stim	s641	False	1
353.881	0.894	354.775	-1.451962292372598	draw_card	0.894	columbia_card_task_fmri	15.0	0.8	89.0	-70.0	0.2	12.0	3.0	2.0	2.677667912769593	0.894	n/a	stim	poldrack-single-stim	s641	False	1
354.779	1.275	356.054	-3.3408511812614874	end_round	1.275	columbia_card_task_fmri	15.0	0.7777777777777778	71.0	-70.0	0.2222222222222222	12.0	4.0	2.0	4.015376044062258	1.275	3.0	stim	poldrack-single-stim	s641	False	1
356.813	1.5	356.062	n/a	-1.0	2.386	columbia_card_task_fmri	n/a	n/a	-1.0	n/a	n/a	n/a	n/a	n/a	n/a	n/a	n/a	ITI	poldrack-single-stim	s641	False	0
358.454	0.678	359.132	-0.6519622923725974	draw_card	0.678	columbia_card_task_fmri	16.0	0.8	89.0	-70.0	0.2	15.0	1.0	3.0	3.077616564018946	0.678	n/a	stim	poldrack-single-stim	s641	False	1
359.135	1.393	360.528	-1.880533720944027	draw_card	1.393	columbia_card_task_fmri	16.0	0.7857142857142857	89.0	-70.0	0.2142857142857142	15.0	2.0	3.0	3.965534412312792	1.393	2.0	stim	poldrack-single-stim	s641	False	0
361.287	1.5	360.536	n/a	-1.0	2.726	columbia_card_task_fmri	n/a	n/a	-1.0	n/a	n/a	n/a	n/a	n/a	n/a	n/a	n/a	ITI	poldrack-single-stim	s641	False	0
363.268	0.567	363.835	-0.2644622923725981	draw_card	0.567	columbia_card_task_fmri	14.0	0.8125	89.0	-65.0	0.1875	16.0	1.0	3.0	-0.4872011584607207	0.567	1.0	stim	poldrack-single-stim	s641	False	0
364.594	1.5	363.843	n/a	-1.0	2.454	columbia_card_task_fmri	n/a	n/a	-1.0	n/a	n/a	n/a	n/a	n/a	n/a	n/a	n/a	ITI	poldrack-single-stim	s641	False	0
366.303	1.794	368.097	-0.5144622923725981	draw_card	1.794	columbia_card_task_fmri	16.0	0.8125	89.0	-75.0	0.1875	16.0	1.0	3.0	4.195905242188914	1.794	n/a	stim	poldrack-single-stim	s641	False	1
368.101	0.718	368.819	-1.6519622923725974	draw_card	0.718	columbia_card_task_fmri	16.0	0.8	89.0	-75.0	0.2	16.0	2.0	3.0	5.0773767454244805	0.718	n/a	stim	poldrack-single-stim	s641	False	1
368.824	1.028	369.852	-2.9519622923725963	end_round	1.028	columbia_card_task_fmri	16.0	0.7857142857142857	71.0	-75.0	0.2142857142857142	16.0	3.0	3.0	6.0169301433124645	1.028	2.0	stim	poldrack-single-stim	s641	False	1
370.61	1.5	369.859	n/a	-1.0	2.318	columbia_card_task_fmri	n/a	n/a	-1.0	n/a	n/a	n/a	n/a	n/a	n/a	n/a	n/a	ITI	poldrack-single-stim	s641	False	0
372.183	1.123	373.306	3.748037707627403	draw_card	1.123	columbia_card_task_fmri	16.0	0.8666666666666667	89.0	-80.0	0.1333333333333333	15.0	1.0	2.0	1.3115776820358749	1.123	n/a	stim	poldrack-single-stim	s641	False	1
373.31	0.492	373.802	2.83375199334169	draw_card	0.492	columbia_card_task_fmri	16.0	0.8571428571428572	89.0	-80.0	0.1428571428571428	15.0	2.0	2.0	2.270723601456602	0.492	n/a	stim	poldrack-single-stim	s641	False	1
373.806	1.128	374.934	1.7788069383966318	draw_card	1.128	columbia_card_task_fmri	16.0	0.8461538461538461	89.0	-80.0	0.1538461538461538	15.0	3.0	2.0	3.314503090000116	1.128	n/a	stim	poldrack-single-stim	s641	False	1
374.938	0.889	375.827	0.5480377076274037	end_round	0.889	columbia_card_task_fmri	16.0	0.8333333333333334	71.0	-80.0	0.1666666666666666	15.0	4.0	2.0	4.454536203923723	0.889	3.0	stim	poldrack-single-stim	s641	False	1
376.583	1.5	375.832	n/a	-1.0	2.318	columbia_card_task_fmri	n/a	n/a	-1.0	n/a	n/a	n/a	n/a	n/a	n/a	n/a	n/a	ITI	poldrack-single-stim	s641	False	0
378.156	0.467	378.623	4.61470437429407	draw_card	0.467	columbia_card_task_fmri	17.0	0.8666666666666667	89.0	-80.0	0.1333333333333333	15.0	1.0	2.0	1.6514648853499736	0.467	n/a	stim	poldrack-single-stim	s641	False	1
378.627	0.959	379.586	3.690894850484548	draw_card	0.959	columbia_card_task_fmri	17.0	0.8571428571428572	89.0	-80.0	0.1428571428571428	15.0	2.0	2.0	2.6206046305313606	0.959	2.0	stim	poldrack-single-stim	s641	False	0
380.34	1.5	379.589	n/a	-1.0	2.59	columbia_card_task_fmri	n/a	n/a	-1.0	n/a	n/a	n/a	n/a	n/a	n/a	n/a	n/a	ITI	poldrack-single-stim	s641	False	0
382.185	0.423	382.608	0.5480377076274019	draw_card	0.423	columbia_card_task_fmri	1.0	0.9375	89.0	-15.0	0.0625	16.0	1.0	1.0	-27.41518305803893	0.423	n/a	stim	poldrack-single-stim	s641	False	1
382.612	1.991	384.603	0.4813710409607352	draw_card	1.991	columbia_card_task_fmri	1.0	0.9333333333333332	89.0	-15.0	0.0666666666666666	16.0	2.0	1.0	-27.29819627096421	1.991	n/a	stim	poldrack-single-stim	s641	False	1
384.607	1.262	385.869	0.4051805647702591	draw_card	1.262	columbia_card_task_fmri	1.0	0.9285714285714286	89.0	-15.0	0.0714285714285714	16.0	3.0	1.0	-27.16983426308247	1.262	n/a	stim	poldrack-single-stim	s641	False	1
385.873	0.363	386.236	0.317268476858171	end_round	0.363	columbia_card_task_fmri	1.0	0.9230769230769232	71.0	-15.0	0.0769230769230769	16.0	4.0	1.0	-27.02816048896593	0.363	3.0	stim	poldrack-single-stim	s641	False	1
386.991	1.5	386.24	n/a	-1.0	2.726	columbia_card_task_fmri	n/a	n/a	-1.0	n/a	n/a	n/a	n/a	n/a	n/a	n/a	n/a	ITI	poldrack-single-stim	s641	False	0
388.972	1.076	390.048	3.673037707627402	draw_card	1.076	columbia_card_task_fmri	10.0	0.9375	89.0	-100.0	0.0625	16.0	1.0	1.0	-4.694348820510303	1.076	n/a	stim	poldrack-single-stim	s641	False	1
390.052	2.484	392.536	3.214704374294069	draw_card	2.484	columbia_card_task_fmri	10.0	0.9333333333333332	89.0	-100.0	0.0666666666666666	16.0	2.0	1.0	-3.8824553528985817	2.484	n/a	stim	poldrack-single-stim	s641	False	1
392.54	1.076	393.616	2.690894850484546	draw_card	1.076	columbia_card_task_fmri	10.0	0.9285714285714286	89.0	-100.0	0.0714285714285714	16.0	3.0	1.0	-2.9921167288286696	1.076	n/a	stim	poldrack-single-stim	s641	False	1
393.621	0.604	394.225	2.086499246088941	draw_card	0.604	columbia_card_task_fmri	10.0	0.9230769230769232	89.0	-100.0	0.0769230769230769	16.0	4.0	1.0	-2.0099967264649194	0.604	n/a	stim	poldrack-single-stim	s641	False	1
394.229	0.569	394.798	1.3813710409607358	draw_card	0.569	columbia_card_task_fmri	10.0	0.9166666666666666	89.0	-100.0	0.0833333333333333	16.0	5.0	1.0	-0.9194156317492704	0.569	n/a	stim	poldrack-single-stim	s641	False	1
394.803	0.387	395.19	0.5480377076274001	draw_card	0.387	columbia_card_task_fmri	10.0	0.9090909090909092	89.0	-100.0	0.0909090909090909	16.0	6.0	1.0	0.30077647833129	0.387	n/a	stim	poldrack-single-stim	s641	False	1
395.194	0.689	395.883	-0.4519622923725981	draw_card	0.689	columbia_card_task_fmri	10.0	0.9	89.0	-100.0	0.1	16.0	7.0	1.0	1.6778017296258838	0.689	n/a	stim	poldrack-single-stim	s641	False	1
395.888	0.706	396.594	-1.6741845145948195	end_round	0.706	columbia_card_task_fmri	10.0	0.8888888888888888	71.0	-100.0	0.1111111111111111	16.0	8.0	1.0	3.247260000674011	0.706	7.0	stim	poldrack-single-stim	s641	False	1
397.352	1.5	396.601	n/a	-1.0	2.522	columbia_card_task_fmri	n/a	n/a	-1.0	n/a	n/a	n/a	n/a	n/a	n/a	n/a	n/a	ITI	poldrack-single-stim	s641	False	0
399.129	0.621	399.75	4.298037707627402	draw_card	0.621	columbia_card_task_fmri	15.0	0.875	89.0	-75.0	0.125	16.0	1.0	2.0	-1.5570014942229662	0.621	n/a	stim	poldrack-single-stim	s641	False	1
399.755	0.9	400.655	3.548037707627402	draw_card	0.9	columbia_card_task_fmri	15.0	0.8666666666666667	89.0	-75.0	0.1333333333333333	16.0	2.0	2.0	-0.7277234085032305	0.9	n/a	stim	poldrack-single-stim	s641	False	1
400.659	0.569	401.228	2.690894850484546	draw_card	0.569	columbia_card_task_fmri	15.0	0.8571428571428572	89.0	-75.0	0.1428571428571428	16.0	3.0	2.0	0.1714589249622768	0.569	3.0	stim	poldrack-single-stim	s641	False	0
401.988	1.5	401.237	n/a	-1.0	3.134	columbia_card_task_fmri	n/a	n/a	-1.0	n/a	n/a	n/a	n/a	n/a	n/a	n/a	n/a	ITI	poldrack-single-stim	s641	False	0
404.376	0.402	404.778	4.548037707627402	draw_card	0.402	columbia_card_task_fmri	16.0	0.875	89.0	-80.0	0.125	16.0	1.0	2.0	0.4269967313700604	0.402	n/a	stim	poldrack-single-stim	s641	False	1
404.783	1.054	405.837	3.748037707627403	draw_card	1.054	columbia_card_task_fmri	16.0	0.8666666666666667	89.0	-80.0	0.1333333333333333	16.0	2.0	2.0	1.3115776820358749	1.054	n/a	stim	poldrack-single-stim	s641	False	1
405.841	0.508	406.349	2.83375199334169	draw_card	0.508	columbia_card_task_fmri	16.0	0.8571428571428572	89.0	-80.0	0.1428571428571428	16.0	3.0	2.0	2.270723601456602	0.508	n/a	stim	poldrack-single-stim	s641	False	1
406.352	0.596	406.948	1.7788069383966318	draw_card	0.596	columbia_card_task_fmri	16.0	0.8461538461538461	89.0	-80.0	0.1538461538461538	16.0	4.0	2.0	3.314503090000116	0.596	n/a	stim	poldrack-single-stim	s641	False	1
406.953	1.384	408.337	0.5480377076274037	end_round	1.384	columbia_card_task_fmri	16.0	0.8333333333333334	71.0	-80.0	0.1666666666666666	16.0	5.0	2.0	4.454536203923723	1.384	4.0	stim	poldrack-single-stim	s641	False	1
409.091	1.5	408.34	n/a	-1.0	2.386	columbia_card_task_fmri	n/a	n/a	-1.0	n/a	n/a	n/a	n/a	n/a	n/a	n/a	n/a	ITI	poldrack-single-stim	s641	False	0
410.732	2.192	412.924	1.735537707627402	end_round	2.192	columbia_card_task_fmri	4.0	0.6875	71.0	-5.0	0.3125	16.0	1.0	5.0	-27.11929227659704	2.192	0.0	stim	poldrack-single-stim	s641	False	1
413.682	1.5	412.931	n/a	-1.0	2.386	columbia_card_task_fmri	n/a	n/a	-1.0	n/a	n/a	n/a	n/a	n/a	n/a	n/a	n/a	ITI	poldrack-single-stim	s641	False	0
415.324	3.526	418.85	-1.1186289590392624	draw_card	3.526	columbia_card_task_fmri	14.0	0.8333333333333334	89.0	-80.0	0.1666666666666666	6.0	1.0	1.0	3.709269502896497	3.526	n/a	stim	poldrack-single-stim	s641	False	1
418.854	2.221	421.075	-4.251962292372597	draw_card	2.221	columbia_card_task_fmri	14.0	0.8	89.0	-80.0	0.2	6.0	2.0	1.0	6.277245098290955	2.221	n/a	stim	poldrack-single-stim	s641	False	1
421.079	0.765	421.844	-8.951962292372599	end_round	0.765	columbia_card_task_fmri	14.0	0.75	71.0	-80.0	0.25	6.0	3.0	1.0	9.380134623743096	0.765	2.0	stim	poldrack-single-stim	s641	False	1
422.601	1.5	421.85	n/a	-1.0	2.318	columbia_card_task_fmri	n/a	n/a	-1.0	n/a	n/a	n/a	n/a	n/a	n/a	n/a	n/a	ITI	poldrack-single-stim	s641	False	0
424.175	1.601	425.776	0.5480377076274019	draw_card	1.601	columbia_card_task_fmri	15.0	0.8333333333333334	89.0	-75.0	0.1666666666666666	6.0	1.0	1.0	2.218748004071884	1.601	n/a	stim	poldrack-single-stim	s641	False	1
425.781	0.544	426.325	-2.451962292372598	draw_card	0.544	columbia_card_task_fmri	15.0	0.8	89.0	-75.0	0.2	6.0	2.0	1.0	4.677422577797358	0.544	n/a	stim	poldrack-single-stim	s641	False	1
426.33	0.844	427.174	-6.951962292372598	end_round	0.844	columbia_card_task_fmri	15.0	0.75	71.0	-75.0	0.25	6.0	3.0	1.0	7.648247768722889	0.844	2.0	stim	poldrack-single-stim	s641	False	1
427.932	1.5	427.181	n/a	-1.0	2.318	columbia_card_task_fmri	n/a	n/a	-1.0	n/a	n/a	n/a	n/a	n/a	n/a	n/a	n/a	ITI	poldrack-single-stim	s641	False	0
429.505	1.445	430.95	2.2147043742940697	draw_card	1.445	columbia_card_task_fmri	16.0	0.8333333333333334	89.0	-70.0	0.1666666666666666	6.0	1.0	1.0	0.7282442211745064	1.445	n/a	stim	poldrack-single-stim	s641	False	1
430.955	0.451	431.406	-0.6519622923725974	draw_card	0.451	columbia_card_task_fmri	16.0	0.8	89.0	-70.0	0.2	6.0	2.0	1.0	3.077616564018946	0.451	n/a	stim	poldrack-single-stim	s641	False	1
431.411	0.681	432.092	-4.951962292372598	end_round	0.681	columbia_card_task_fmri	16.0	0.75	71.0	-70.0	0.25	6.0	3.0	1.0	5.916376162732597	0.681	2.0	stim	poldrack-single-stim	s641	False	1
432.852	1.5	432.101	n/a	-1.0	2.862	columbia_card_task_fmri	n/a	n/a	-1.0	n/a	n/a	n/a	n/a	n/a	n/a	n/a	n/a	ITI	poldrack-single-stim	s641	False	0
434.968	2.402	437.37	2.798037707627402	draw_card	2.402	columbia_card_task_fmri	23.0	0.75	89.0	-60.0	0.25	8.0	1.0	2.0	4.617483791377381	2.402	n/a	stim	poldrack-single-stim	s641	False	1
437.374	0.799	438.173	-0.1662480066583098	end_round	0.799	columbia_card_task_fmri	23.0	0.7142857142857143	71.0	-60.0	0.2857142857142857	8.0	2.0	2.0	6.172834189907384	0.799	1.0	stim	poldrack-single-stim	s641	False	1
438.933	1.5	438.182	n/a	-1.0	2.726	columbia_card_task_fmri	n/a	n/a	-1.0	n/a	n/a	n/a	n/a	n/a	n/a	n/a	n/a	ITI	poldrack-single-stim	s641	False	0
440.914	1.906	442.82	3.298037707627402	draw_card	1.906	columbia_card_task_fmri	27.0	0.75	89.0	-70.0	0.25	8.0	1.0	2.0	10.679058637554398	1.906	n/a	stim	poldrack-single-stim	s641	False	1
442.824	0.733	443.557	-0.1662480066583134	end_round	0.733	columbia_card_task_fmri	27.0	0.7142857142857143	71.0	-70.0	0.2857142857142857	8.0	2.0	2.0	12.496811537821571	0.733	1.0	stim	poldrack-single-stim	s641	False	1
444.316	1.5	443.565	n/a	-1.0	2.25	columbia_card_task_fmri	n/a	n/a	-1.0	n/a	n/a	n/a	n/a	n/a	n/a	n/a	n/a	ITI	poldrack-single-stim	s641	False	0
445.821	0.582	446.403	-1.4519622923725963	draw_card	0.582	columbia_card_task_fmri	16.0	0.7777777777777778	89.0	-65.0	0.2222222222222222	9.0	1.0	2.0	2.352627023698311	0.582	1.0	stim	poldrack-single-stim	s641	False	0
447.162	1.5	446.411	n/a	-1.0	2.318	columbia_card_task_fmri	n/a	n/a	-1.0	n/a	n/a	n/a	n/a	n/a	n/a	n/a	n/a	ITI	poldrack-single-stim	s641	False	0
448.736	0.776	449.512	3.748037707627403	draw_card	0.776	columbia_card_task_fmri	13.0	0.9	89.0	-85.0	0.1	10.0	1.0	1.0	-1.9216411733367167	0.776	n/a	stim	poldrack-single-stim	s641	False	1
449.517	1.721	451.238	2.6591488187385126	draw_card	1.721	columbia_card_task_fmri	13.0	0.8888888888888888	89.0	-85.0	0.1111111111111111	10.0	2.0	1.0	-0.5234443530747228	1.721	n/a	stim	poldrack-single-stim	s641	False	1
451.242	0.761	452.003	1.298037707627402	draw_card	0.761	columbia_card_task_fmri	13.0	0.875	89.0	-85.0	0.125	10.0	3.0	1.0	1.0883380497690212	0.761	n/a	stim	poldrack-single-stim	s641	False	1
452.008	0.708	452.716	-0.4519622923725963	end_round	0.708	columbia_card_task_fmri	13.0	0.8571428571428572	71.0	-85.0	0.1428571428571428	10.0	4.0	1.0	2.970486599771867	0.708	3.0	stim	poldrack-single-stim	s641	False	1
453.476	1.5	452.725	n/a	-1.0	2.454	columbia_card_task_fmri	n/a	n/a	-1.0	n/a	n/a	n/a	n/a	n/a	n/a	n/a	n/a	ITI	poldrack-single-stim	s641	False	0
455.186	1.499	456.685	-1.251962292372597	draw_card	1.499	columbia_card_task_fmri	14.0	0.8	89.0	-65.0	0.2	10.0	1.0	2.0	0.2780032987644318	1.499	1.0	stim	poldrack-single-stim	s641	False	0
457.443	1.5	456.692	n/a	-1.0	2.522	columbia_card_task_fmri	n/a	n/a	-1.0	n/a	n/a	n/a	n/a	n/a	n/a	n/a	n/a	ITI	poldrack-single-stim	s641	False	0
459.221	2.182	461.403	0.1480377076274033	draw_card	2.182	columbia_card_task_fmri	17.0	0.8	89.0	-70.0	0.2	10.0	1.0	2.0	3.4775663954772758	2.182	n/a	stim	poldrack-single-stim	s641	False	1
461.408	0.846	462.254	-1.7852956257059305	end_round	0.846	columbia_card_task_fmri	17.0	0.7777777777777778	71.0	-70.0	0.2222222222222222	10.0	2.0	2.0	4.846757788068608	0.846	1.0	stim	poldrack-single-stim	s641	False	1
463.014	1.5	462.263	n/a	-1.0	2.318	columbia_card_task_fmri	n/a	n/a	-1.0	n/a	n/a	n/a	n/a	n/a	n/a	n/a	n/a	ITI	poldrack-single-stim	s641	False	0
464.587	0.52	465.107	-1.1186289590392642	draw_card	0.52	columbia_card_task_fmri	13.0	0.8333333333333334	89.0	-75.0	0.1666666666666666	12.0	1.0	2.0	1.4734937471857634	0.52	n/a	stim	poldrack-single-stim	s641	False	1
465.112	1.573	466.685	-2.4519622923726	draw_card	1.573	columbia_card_task_fmri	13.0	0.8181818181818181	89.0	-75.0	0.1818181818181818	12.0	2.0	2.0	2.618801069714188	1.573	2.0	stim	poldrack-single-stim	s641	False	0
467.444	1.5	466.693	n/a	-1.0	2.522	columbia_card_task_fmri	n/a	n/a	-1.0	n/a	n/a	n/a	n/a	n/a	n/a	n/a	n/a	ITI	poldrack-single-stim	s641	False	0
469.222	0.498	469.72	0.5480377076274037	draw_card	0.498	columbia_card_task_fmri	14.0	0.8333333333333334	89.0	-70.0	0.1666666666666666	12.0	1.0	2.0	-0.0170002361422945	0.498	n/a	stim	poldrack-single-stim	s641	False	1
469.725	0.998	470.723	-0.7246895650998733	draw_card	0.998	columbia_card_task_fmri	14.0	0.8181818181818181	89.0	-70.0	0.1818181818181818	12.0	2.0	2.0	1.0762332855467207	0.998	2.0	stim	poldrack-single-stim	s641	False	0
471.483	1.5	470.732	n/a	-1.0	2.998	columbia_card_task_fmri	n/a	n/a	-1.0	n/a	n/a	n/a	n/a	n/a	n/a	n/a	n/a	ITI	poldrack-single-stim	s641	False	0
473.737	1.722	475.459	0.5480377076274037	draw_card	1.722	columbia_card_task_fmri	16.0	0.8333333333333334	89.0	-80.0	0.1666666666666666	12.0	1.0	2.0	4.454536203923723	1.722	n/a	stim	poldrack-single-stim	s641	False	1
475.464	0.122	475.586	-0.9065077469180548	draw_card	0.122	columbia_card_task_fmri	16.0	0.8181818181818181	89.0	-80.0	0.1818181818181818	12.0	2.0	2.0	5.703989290602358	0.122	n/a	stim	poldrack-single-stim	s641	False	1
475.591	0.824	476.415	-2.6519622923725974	end_round	0.824	columbia_card_task_fmri	16.0	0.8	71.0	-80.0	0.2	12.0	3.0	2.0	7.0771619039003895	0.824	2.0	stim	poldrack-single-stim	s641	False	1
477.171	1.5	476.42	n/a	-1.0	2.318	columbia_card_task_fmri	n/a	n/a	-1.0	n/a	n/a	n/a	n/a	n/a	n/a	n/a	n/a	ITI	poldrack-single-stim	s641	False	0
478.744	0.666	479.41	0.3480377076274026	draw_card	0.666	columbia_card_task_fmri	16.0	0.8	89.0	-65.0	0.2	15.0	1.0	3.0	1.0778859838514592	0.666	n/a	stim	poldrack-single-stim	s641	False	1
479.416	1.779	481.195	-0.809105149515454	draw_card	1.779	columbia_card_task_fmri	16.0	0.7857142857142857	89.0	-65.0	0.2142857142857142	15.0	2.0	3.0	1.9141675381808696	1.779	n/a	stim	poldrack-single-stim	s641	False	1
481.201	1.152	482.353	-2.1442699846802915	draw_card	1.152	columbia_card_task_fmri	16.0	0.7692307692307692	89.0	-65.0	0.2307692307692307	15.0	3.0	3.0	2.804980019802884	1.152	3.0	stim	poldrack-single-stim	s641	False	0
483.113	1.5	482.362	n/a	-1.0	2.25	columbia_card_task_fmri	n/a	n/a	-1.0	n/a	n/a	n/a	n/a	n/a	n/a	n/a	n/a	ITI	poldrack-single-stim	s641	False	0
484.619	0.507	485.126	-1.326962292372598	draw_card	0.507	columbia_card_task_fmri	15.0	0.8125	89.0	-75.0	0.1875	16.0	1.0	3.0	3.805639836824128	0.507	n/a	stim	poldrack-single-stim	s641	False	1
485.132	2.348	487.48	-2.451962292372598	draw_card	2.348	columbia_card_task_fmri	15.0	0.8	89.0	-75.0	0.2	16.0	2.0	3.0	4.677422577797358	2.348	n/a	stim	poldrack-single-stim	s641	False	1
487.486	1.746	489.232	-3.737676578086883	draw_card	1.746	columbia_card_task_fmri	15.0	0.7857142857142857	89.0	-75.0	0.2142857142857142	16.0	3.0	3.0	5.606648919365362	1.746	n/a	stim	poldrack-single-stim	s641	False	1
489.238	0.673	489.911	-5.221193061603372	end_round	0.673	columbia_card_task_fmri	15.0	0.7692307692307692	71.0	-75.0	0.2307692307692307	16.0	4.0	3.0	6.596465458391357	0.673	3.0	stim	poldrack-single-stim	s641	False	1
490.671	1.5	489.92	n/a	-1.0	2.454	columbia_card_task_fmri	n/a	n/a	-1.0	n/a	n/a	n/a	n/a	n/a	n/a	n/a	n/a	ITI	poldrack-single-stim	s641	False	0
492.38	2.193	494.573	-0.7644622923725981	end_round	2.193	columbia_card_task_fmri	14.0	0.6875	71.0	-35.0	0.3125	16.0	1.0	5.0	-8.608029729767217	2.193	0.0	stim	poldrack-single-stim	s641	False	1
495.334	1.5	494.583	n/a	-1.0	2.318	columbia_card_task_fmri	n/a	n/a	-1.0	n/a	n/a	n/a	n/a	n/a	n/a	n/a	n/a	ITI	poldrack-single-stim	s641	False	0
496.908	1.282	498.19	4.414704374294069	draw_card	1.282	columbia_card_task_fmri	16.0	0.8666666666666667	89.0	-75.0	0.1333333333333333	15.0	1.0	2.0	-0.3878427015058996	1.282	n/a	stim	poldrack-single-stim	s641	False	1
498.195	0.393	498.588	3.548037707627404	draw_card	0.393	columbia_card_task_fmri	16.0	0.8571428571428572	89.0	-75.0	0.1428571428571428	15.0	2.0	2.0	0.5213336430693261	0.393	n/a	stim	poldrack-single-stim	s641	False	1
498.592	0.366	498.958	2.548037707627402	draw_card	0.366	columbia_card_task_fmri	16.0	0.8461538461538461	89.0	-75.0	0.1538461538461538	15.0	3.0	2.0	1.5107352024372176	0.366	n/a	stim	poldrack-single-stim	s641	False	1
498.963	0.411	499.374	1.3813710409607358	draw_card	0.411	columbia_card_task_fmri	16.0	0.8333333333333334	89.0	-75.0	0.1666666666666666	15.0	4.0	2.0	2.591376809142304	0.411	n/a	stim	poldrack-single-stim	s641	False	1
499.38	0.367	499.747	0.0025831621728551	draw_card	0.367	columbia_card_task_fmri	16.0	0.8181818181818181	89.0	-75.0	0.1818181818181818	15.0	5.0	2.0	3.7757390582722152	0.367	n/a	stim	poldrack-single-stim	s641	False	1
499.752	0.721	500.473	-1.6519622923725974	draw_card	0.721	columbia_card_task_fmri	16.0	0.8	89.0	-75.0	0.2	15.0	6.0	2.0	5.0773767454244805	0.721	n/a	stim	poldrack-single-stim	s641	False	1
500.477	0.853	501.33	-3.6741845145948178	end_round	0.853	columbia_card_task_fmri	16.0	0.7777777777777778	71.0	-75.0	0.2222222222222222	15.0	7.0	2.0	6.509534154232121	0.853	6.0	stim	poldrack-single-stim	s641	False	1
502.089	1.5	501.338	n/a	-1.0	2.318	columbia_card_task_fmri	n/a	n/a	-1.0	n/a	n/a	n/a	n/a	n/a	n/a	n/a	n/a	ITI	poldrack-single-stim	s641	False	0
503.66	1.303	504.963	5.081371040960735	draw_card	1.303	columbia_card_task_fmri	16.0	0.8666666666666667	89.0	-70.0	0.1333333333333333	15.0	1.0	2.0	-2.0872336984684203	1.303	n/a	stim	poldrack-single-stim	s641	False	1
504.967	0.336	505.303	4.262323421913117	draw_card	0.336	columbia_card_task_fmri	16.0	0.8571428571428572	89.0	-70.0	0.1428571428571428	15.0	2.0	2.0	-1.2280277671380802	0.336	2.0	stim	poldrack-single-stim	s641	False	0
506.061	1.5	505.31	n/a	-1.0	2.59	columbia_card_task_fmri	n/a	n/a	-1.0	n/a	n/a	n/a	n/a	n/a	n/a	n/a	n/a	ITI	poldrack-single-stim	s641	False	0
507.906	0.983	508.889	2.423037707627402	draw_card	0.983	columbia_card_task_fmri	8.0	0.9375	89.0	-90.0	0.0625	16.0	1.0	1.0	-7.598395975619784	0.983	n/a	stim	poldrack-single-stim	s641	False	1
508.894	0.337	509.231	2.0147043742940687	draw_card	0.337	columbia_card_task_fmri	8.0	0.9333333333333332	89.0	-90.0	0.0666666666666666	16.0	2.0	1.0	-6.875111325038255	0.337	n/a	stim	poldrack-single-stim	s641	False	1
509.237	0.309	509.546	1.5480377076274028	draw_card	0.309	columbia_card_task_fmri	8.0	0.9285714285714286	89.0	-90.0	0.0714285714285714	16.0	3.0	1.0	-6.081940358796267	0.309	3.0	stim	poldrack-single-stim	s641	False	0
510.305	1.5	509.554	n/a	-1.0	2.25	columbia_card_task_fmri	n/a	n/a	-1.0	n/a	n/a	n/a	n/a	n/a	n/a	n/a	n/a	ITI	poldrack-single-stim	s641	False	0
511.81	1.595	513.405	3.985537707627402	draw_card	1.595	columbia_card_task_fmri	10.0	0.9375	89.0	-95.0	0.0625	16.0	1.0	1.0	-5.904387638245911	1.595	n/a	stim	poldrack-single-stim	s641	False	1
513.411	0.471	513.882	3.548037707627403	draw_card	0.471	columbia_card_task_fmri	10.0	0.9333333333333332	89.0	-95.0	0.0666666666666666	16.0	2.0	1.0	-5.129413944497902	0.471	n/a	stim	poldrack-single-stim	s641	False	1
513.887	0.53	514.417	3.048037707627403	draw_card	0.53	columbia_card_task_fmri	10.0	0.9285714285714286	89.0	-95.0	0.0714285714285714	16.0	3.0	1.0	-4.27956126049061	0.53	n/a	stim	poldrack-single-stim	s641	False	1
514.422	0.693	515.115	2.471114630704325	draw_card	0.693	columbia_card_task_fmri	10.0	0.9230769230769232	89.0	-95.0	0.0769230769230769	16.0	4.0	1.0	-3.342099601246421	0.693	n/a	stim	poldrack-single-stim	s641	False	1
515.119	0.574	515.693	1.798037707627402	end_round	0.574	columbia_card_task_fmri	10.0	0.9166666666666666	71.0	-95.0	0.0833333333333333	16.0	5.0	1.0	-2.301107473461819	0.574	4.0	stim	poldrack-single-stim	s641	False	1
516.452	1.5	515.701	n/a	-1.0	2.25	columbia_card_task_fmri	n/a	n/a	-1.0	n/a	n/a	n/a	n/a	n/a	n/a	n/a	n/a	ITI	poldrack-single-stim	s641	False	0
517.957	0.619	518.576	4.923037707627402	draw_card	0.619	columbia_card_task_fmri	15.0	0.875	89.0	-70.0	0.125	16.0	1.0	2.0	-3.210299359642576	0.619	1.0	stim	poldrack-single-stim	s641	False	0
519.333	1.5	518.582	n/a	-1.0	2.522	columbia_card_task_fmri	n/a	n/a	-1.0	n/a	n/a	n/a	n/a	n/a	n/a	n/a	n/a	ITI	poldrack-single-stim	s641	False	0
521.111	0.813	521.924	3.923037707627402	draw_card	0.813	columbia_card_task_fmri	16.0	0.875	89.0	-85.0	0.125	16.0	1.0	2.0	2.080357192418255	0.813	n/a	stim	poldrack-single-stim	s641	False	1
521.929	0.524	522.453	3.081371040960735	draw_card	0.524	columbia_card_task_fmri	16.0	0.8666666666666667	89.0	-85.0	0.1333333333333333	16.0	2.0	2.0	3.011023089018643	0.524	n/a	stim	poldrack-single-stim	s641	False	1
522.459	0.46	522.919	2.119466279055975	draw_card	0.46	columbia_card_task_fmri	16.0	0.8571428571428572	89.0	-85.0	0.1428571428571428	16.0	3.0	2.0	4.020137869299944	0.46	n/a	stim	poldrack-single-stim	s641	False	1
522.924	0.56	523.484	1.0095761691658618	draw_card	0.56	columbia_card_task_fmri	16.0	0.8461538461538461	89.0	-85.0	0.1538461538461538	16.0	4.0	2.0	5.118294554922841	0.56	4.0	stim	poldrack-single-stim	s641	False	0
524.244	1.5	523.493	n/a	-1.0	2.454	columbia_card_task_fmri	n/a	n/a	-1.0	n/a	n/a	n/a	n/a	n/a	n/a	n/a	n/a	ITI	poldrack-single-stim	s641	False	0
