onset	duration	movement_onset	EV	action	block_duration	experiment_exp_id	gain_amount	gain_probability	key_press	loss_amount	loss_probability	num_cards	num_click_in_round	num_loss_cards	risk	response_time	total_cards	trial_id	trial_type	worker_id	junk	feedback
3.009	3.0	6.009	-0.894286645067895	draw_card	3.0	columbia_card_task_fmri	12.0	0.8333333333333334	89.0	-70.0	0.1666666666666666	6.0	1.0	1.0	-1.500246618057961	3.0	n/a	stim	poldrack-single-stim	s642	False	1
6.012	0.947	6.959	-3.627619978401228	draw_card	0.947	columbia_card_task_fmri	12.0	0.8	89.0	-70.0	0.2	6.0	2.0	1.0	0.7394912773209867	0.947	n/a	stim	poldrack-single-stim	s642	False	1
6.96	1.897	8.857	-7.727619978401229	draw_card	1.897	columbia_card_task_fmri	12.0	0.75	89.0	-70.0	0.25	6.0	3.0	1.0	3.445839771419692	1.897	n/a	stim	poldrack-single-stim	s642	False	1
8.859	0.798	9.657	-14.56095331173456	end_round	0.798	columbia_card_task_fmri	12.0	0.6666666666666667	71.0	-70.0	0.3333333333333333	6.0	4.0	1.0	6.593284976974751	0.798	3.0	stim	poldrack-single-stim	s642	False	1
10.41	1.5	9.659	n/a	-1.0	2.318	columbia_card_task_fmri	n/a	n/a	-1.0	n/a	n/a	n/a	n/a	n/a	n/a	n/a	n/a	ITI	poldrack-single-stim	s642	False	0
11.98	0.942	12.922	-0.060953311734561	draw_card	0.942	columbia_card_task_fmri	14.0	0.8333333333333334	89.0	-75.0	0.1666666666666666	6.0	1.0	1.0	1.1077319934710417	0.942	n/a	stim	poldrack-single-stim	s642	False	1
12.924	2.433	15.357	-3.027619978401228	draw_card	2.433	columbia_card_task_fmri	14.0	0.8	89.0	-75.0	0.2	6.0	2.0	1.0	3.538776288070032	2.433	n/a	stim	poldrack-single-stim	s642	False	1
15.362	0.598	15.96	-7.477619978401229	draw_card	0.598	columbia_card_task_fmri	14.0	0.75	89.0	-75.0	0.25	6.0	3.0	1.0	6.476268168700486	0.598	n/a	stim	poldrack-single-stim	s642	False	1
15.962	2.132	18.094	-14.894286645067895	draw_card	2.132	columbia_card_task_fmri	14.0	0.6666666666666667	89.0	-75.0	0.3333333333333333	6.0	4.0	1.0	9.892509868800488	2.132	n/a	stim	poldrack-single-stim	s642	False	1
18.097	0.697	18.794	-29.72761997840123	end_round	0.697	columbia_card_task_fmri	14.0	0.5	71.0	-75.0	0.5	6.0	5.0	1.0	12.437101008141305	0.697	4.0	stim	poldrack-single-stim	s642	False	1
19.547	1.5	18.796	n/a	-1.0	2.318	columbia_card_task_fmri	n/a	n/a	-1.0	n/a	n/a	n/a	n/a	n/a	n/a	n/a	n/a	ITI	poldrack-single-stim	s642	False	0
21.117	4.182	25.299	1.605713354932105	draw_card	4.182	columbia_card_task_fmri	15.0	0.8333333333333334	89.0	-70.0	0.1666666666666666	6.0	1.0	1.0	-0.3825569681665328	4.182	n/a	stim	poldrack-single-stim	s642	False	1
25.301	1.434	26.735	-1.227619978401229	draw_card	1.434	columbia_card_task_fmri	15.0	0.8	89.0	-70.0	0.2	6.0	2.0	1.0	1.9391704389680624	1.434	2.0	stim	poldrack-single-stim	s642	False	0
27.488	1.5	26.737	n/a	-1.0	2.862	columbia_card_task_fmri	n/a	n/a	-1.0	n/a	n/a	n/a	n/a	n/a	n/a	n/a	n/a	ITI	poldrack-single-stim	s642	False	0
29.602	0.956	30.558	2.4390466882654387	draw_card	0.956	columbia_card_task_fmri	17.0	0.8333333333333334	89.0	-75.0	0.1666666666666666	6.0	1.0	1.0	2.2254728450806525	0.956	n/a	stim	poldrack-single-stim	s642	False	1
30.559	2.178	32.737	-0.6276199784012275	draw_card	2.178	columbia_card_task_fmri	17.0	0.8	89.0	-75.0	0.2	6.0	2.0	1.0	4.738503159487728	2.178	n/a	stim	poldrack-single-stim	s642	False	1
32.738	0.834	33.572	-5.227619978401229	draw_card	0.834	columbia_card_task_fmri	17.0	0.75	89.0	-75.0	0.25	6.0	3.0	1.0	7.7750539563621075	0.834	n/a	stim	poldrack-single-stim	s642	False	1
33.573	0.656	34.229	-12.894286645067895	end_round	0.656	columbia_card_task_fmri	17.0	0.6666666666666667	71.0	-75.0	0.3333333333333333	6.0	4.0	1.0	11.30649165172273	0.656	3.0	stim	poldrack-single-stim	s642	False	1
34.984	1.5	34.233	n/a	-1.0	2.726	columbia_card_task_fmri	n/a	n/a	-1.0	n/a	n/a	n/a	n/a	n/a	n/a	n/a	n/a	ITI	poldrack-single-stim	s642	False	0
36.962	4.772	41.734	3.772380021598771	draw_card	4.772	columbia_card_task_fmri	24.0	0.75	89.0	-60.0	0.25	8.0	1.0	2.0	4.311665226849563	4.772	1.0	stim	poldrack-single-stim	s642	False	0
42.487	1.5	41.736	n/a	-1.0	2.25	columbia_card_task_fmri	n/a	n/a	-1.0	n/a	n/a	n/a	n/a	n/a	n/a	n/a	n/a	ITI	poldrack-single-stim	s642	False	0
43.989	1.92	45.909	3.772380021598771	draw_card	1.92	columbia_card_task_fmri	29.0	0.75	89.0	-75.0	0.25	8.0	1.0	2.0	12.97034263978827	1.92	n/a	stim	poldrack-single-stim	s642	False	1
45.911	1.867	47.778	0.0580943073130593	draw_card	1.867	columbia_card_task_fmri	29.0	0.7142857142857143	89.0	-75.0	0.2857142857142857	8.0	2.0	2.0	14.919157866154393	1.867	n/a	stim	poldrack-single-stim	s642	False	1
47.78	1.821	49.601	-4.8942866450678935	draw_card	1.821	columbia_card_task_fmri	29.0	0.6666666666666667	89.0	-75.0	0.3333333333333333	8.0	3.0	2.0	16.96255247495983	1.821	n/a	stim	poldrack-single-stim	s642	False	1
49.603	1.233	50.836	-11.82761997840123	draw_card	1.233	columbia_card_task_fmri	29.0	0.6	89.0	-75.0	0.4	8.0	4.0	2.0	18.885639327120103	1.233	4.0	stim	poldrack-single-stim	s642	False	0
51.589	1.5	50.838	n/a	-1.0	2.318	columbia_card_task_fmri	n/a	n/a	-1.0	n/a	n/a	n/a	n/a	n/a	n/a	n/a	n/a	ITI	poldrack-single-stim	s642	False	0
53.16	0.597	53.757	-0.4498422006234486	draw_card	0.597	columbia_card_task_fmri	17.0	0.7777777777777778	89.0	-65.0	0.2222222222222222	9.0	1.0	2.0	2.029803308549297	0.597	1.0	stim	poldrack-single-stim	s642	False	0
54.51	1.5	53.759	n/a	-1.0	2.454	columbia_card_task_fmri	n/a	n/a	-1.0	n/a	n/a	n/a	n/a	n/a	n/a	n/a	n/a	ITI	poldrack-single-stim	s642	False	0
56.216	0.753	56.969	3.8723800215987705	draw_card	0.753	columbia_card_task_fmri	14.0	0.9	89.0	-95.0	0.1	10.0	1.0	1.0	0.6395190763321068	0.753	n/a	stim	poldrack-single-stim	s642	False	1
56.972	1.544	58.516	2.6612689104876583	draw_card	1.544	columbia_card_task_fmri	14.0	0.8888888888888888	89.0	-95.0	0.1111111111111111	10.0	2.0	1.0	2.194500232664751	1.544	n/a	stim	poldrack-single-stim	s642	False	1
58.518	3.067	61.585	1.147380021598771	draw_card	3.067	columbia_card_task_fmri	14.0	0.875	89.0	-95.0	0.125	10.0	3.0	1.0	3.987033723911658	3.067	n/a	stim	poldrack-single-stim	s642	False	1
61.587	2.826	64.413	-0.7990485498298001	draw_card	2.826	columbia_card_task_fmri	14.0	0.8571428571428572	89.0	-95.0	0.1428571428571428	10.0	4.0	1.0	6.08027261606388	2.826	n/a	stim	poldrack-single-stim	s642	False	1
64.415	3.025	67.44	-3.394286645067893	end_round	3.025	columbia_card_task_fmri	14.0	0.8333333333333334	71.0	-95.0	0.1666666666666666	10.0	5.0	1.0	8.559642367891819	3.025	4.0	stim	poldrack-single-stim	s642	False	1
68.194	1.5	67.443	n/a	-1.0	2.522	columbia_card_task_fmri	n/a	n/a	-1.0	n/a	n/a	n/a	n/a	n/a	n/a	n/a	n/a	ITI	poldrack-single-stim	s642	False	0
69.968	1.687	71.655	-0.2276199784012289	draw_card	1.687	columbia_card_task_fmri	15.0	0.8	89.0	-65.0	0.2	10.0	1.0	2.0	-0.0602814678552121	1.687	n/a	stim	poldrack-single-stim	s642	False	1
71.657	1.305	72.962	-2.005397756179006	draw_card	1.305	columbia_card_task_fmri	15.0	0.7777777777777778	89.0	-65.0	0.2222222222222222	10.0	2.0	2.0	1.1985425472514066	1.305	n/a	stim	poldrack-single-stim	s642	False	1
72.964	0.552	73.516	-4.227619978401229	draw_card	0.552	columbia_card_task_fmri	15.0	0.75	89.0	-65.0	0.25	10.0	3.0	2.0	2.58002430977102	0.552	n/a	stim	poldrack-single-stim	s642	False	1
73.519	0.863	74.382	-7.084762835544083	end_round	0.863	columbia_card_task_fmri	15.0	0.7142857142857143	71.0	-65.0	0.2857142857142857	10.0	4.0	2.0	4.078967180435178	0.863	3.0	stim	poldrack-single-stim	s642	False	1
75.135	1.5	74.384	n/a	-1.0	2.318	columbia_card_task_fmri	n/a	n/a	-1.0	n/a	n/a	n/a	n/a	n/a	n/a	n/a	n/a	ITI	poldrack-single-stim	s642	False	0
76.705	2.763	79.468	1.3723800215987725	draw_card	2.763	columbia_card_task_fmri	17.0	0.8	89.0	-65.0	0.2	10.0	1.0	2.0	0.7394912773209867	2.763	1.0	stim	poldrack-single-stim	s642	False	0
80.222	1.5	79.471	n/a	-1.0	2.522	columbia_card_task_fmri	n/a	n/a	-1.0	n/a	n/a	n/a	n/a	n/a	n/a	n/a	n/a	ITI	poldrack-single-stim	s642	False	0
81.996	1.852	83.848	-0.060953311734561	draw_card	1.852	columbia_card_task_fmri	13.0	0.8333333333333334	89.0	-70.0	0.1666666666666666	12.0	1.0	2.0	-1.127686165913719	1.852	n/a	stim	poldrack-single-stim	s642	False	1
83.85	1.632	85.482	-1.3185290693103224	draw_card	1.632	columbia_card_task_fmri	13.0	0.8181818181818181	89.0	-70.0	0.1818181818181818	12.0	2.0	2.0	-0.0476326930253776	1.632	n/a	stim	poldrack-single-stim	s642	False	1
85.485	0.803	86.288	-2.827619978401229	draw_card	0.803	columbia_card_task_fmri	13.0	0.8	89.0	-70.0	0.2	12.0	3.0	2.0	1.139381755230076	0.803	n/a	stim	poldrack-single-stim	s642	False	1
86.29	1.14	87.43	-4.672064422845674	draw_card	1.14	columbia_card_task_fmri	13.0	0.7777777777777778	89.0	-70.0	0.2222222222222222	12.0	4.0	2.0	2.445437639339765	1.14	n/a	stim	poldrack-single-stim	s642	False	1
87.433	1.239	88.672	-6.977619978401229	draw_card	1.239	columbia_card_task_fmri	13.0	0.75	89.0	-70.0	0.25	12.0	5.0	2.0	3.878751295043564	1.239	n/a	stim	poldrack-single-stim	s642	False	1
88.674	0.935	89.609	-9.941905692686944	end_round	0.935	columbia_card_task_fmri	13.0	0.7142857142857143	71.0	-70.0	0.2857142857142857	12.0	6.0	2.0	5.433930812673935	0.935	5.0	stim	poldrack-single-stim	s642	False	1
90.364	1.5	89.613	n/a	-1.0	2.998	columbia_card_task_fmri	n/a	n/a	-1.0	n/a	n/a	n/a	n/a	n/a	n/a	n/a	n/a	ITI	poldrack-single-stim	s642	False	0
92.613	1.832	94.445	-0.060953311734561	draw_card	1.832	columbia_card_task_fmri	15.0	0.8333333333333334	89.0	-80.0	0.1666666666666666	12.0	1.0	2.0	3.343232203789114	1.832	n/a	stim	poldrack-single-stim	s642	False	1
94.447	1.012	95.459	-1.500347251128504	draw_card	1.012	columbia_card_task_fmri	15.0	0.8181818181818181	89.0	-80.0	0.1818181818181818	12.0	2.0	2.0	4.5795260763107	1.012	n/a	stim	poldrack-single-stim	s642	False	1
95.461	1.207	96.668	-3.227619978401229	draw_card	1.207	columbia_card_task_fmri	15.0	0.8	89.0	-80.0	0.2	12.0	3.0	2.0	5.938247275610578	1.207	n/a	stim	poldrack-single-stim	s642	False	1
96.671	0.492	97.163	-5.338731089512342	draw_card	0.492	columbia_card_task_fmri	15.0	0.7777777777777778	89.0	-80.0	0.2222222222222222	12.0	4.0	2.0	7.433222597362985	0.492	n/a	stim	poldrack-single-stim	s642	False	1
97.164	1.007	98.171	-7.977619978401229	draw_card	1.007	columbia_card_task_fmri	15.0	0.75	89.0	-80.0	0.25	12.0	5.0	2.0	9.073855675545763	1.007	n/a	stim	poldrack-single-stim	s642	False	1
98.173	1.547	99.72	-11.370477121258368	draw_card	1.547	columbia_card_task_fmri	15.0	0.7142857142857143	89.0	-80.0	0.2857142857142857	12.0	6.0	2.0	10.853973641638332	1.547	n/a	stim	poldrack-single-stim	s642	False	1
99.723	0.867	100.59	-15.894286645067892	end_round	0.867	columbia_card_task_fmri	15.0	0.6666666666666667	71.0	-80.0	0.3333333333333333	12.0	7.0	2.0	12.720488069973392	0.867	6.0	stim	poldrack-single-stim	s642	False	1
101.344	1.5	100.593	n/a	-1.0	2.318	columbia_card_task_fmri	n/a	n/a	-1.0	n/a	n/a	n/a	n/a	n/a	n/a	n/a	n/a	ITI	poldrack-single-stim	s642	False	0
102.915	5.372	108.287	-1.027619978401228	draw_card	5.372	columbia_card_task_fmri	14.0	0.8	89.0	-65.0	0.2	15.0	1.0	3.0	-0.4601635273790769	5.372	n/a	stim	poldrack-single-stim	s642	False	1
108.29	0.841	109.131	-2.156191406972656	draw_card	0.841	columbia_card_task_fmri	14.0	0.7857142857142857	89.0	-65.0	0.2142857142857142	15.0	2.0	3.0	0.3553453949370251	0.841	n/a	stim	poldrack-single-stim	s642	False	1
109.134	1.409	110.543	-3.458389209170461	draw_card	1.409	columbia_card_task_fmri	14.0	0.7692307692307692	89.0	-65.0	0.2307692307692307	15.0	3.0	3.0	1.2240374018402207	1.409	n/a	stim	poldrack-single-stim	s642	False	1
110.546	1.055	111.601	-4.977619978401229	draw_card	1.055	columbia_card_task_fmri	14.0	0.75	89.0	-65.0	0.25	15.0	4.0	3.0	2.1471205636912387	1.055	4.0	stim	poldrack-single-stim	s642	False	0
112.355	1.5	111.604	n/a	-1.0	2.25	columbia_card_task_fmri	n/a	n/a	-1.0	n/a	n/a	n/a	n/a	n/a	n/a	n/a	n/a	ITI	poldrack-single-stim	s642	False	0
113.857	3.978	117.835	-1.102619978401229	draw_card	3.978	columbia_card_task_fmri	1.0	0.9375	89.0	-45.0	0.0625	16.0	1.0	1.0	-20.908018045659176	3.978	n/a	stim	poldrack-single-stim	s642	False	1
117.839	0.758	118.597	-1.2942866450678954	draw_card	0.758	columbia_card_task_fmri	1.0	0.9333333333333332	89.0	-45.0	0.0666666666666666	16.0	2.0	1.0	-20.569219227679376	0.758	n/a	stim	poldrack-single-stim	s642	False	1
118.6	0.564	119.164	-1.5133342641155143	draw_card	0.564	columbia_card_task_fmri	1.0	0.9285714285714286	89.0	-45.0	0.0714285714285714	16.0	3.0	1.0	-20.197638354006045	0.564	n/a	stim	poldrack-single-stim	s642	False	1
119.166	0.655	119.821	-1.7660815168627673	draw_card	0.655	columbia_card_task_fmri	1.0	0.9230769230769232	89.0	-45.0	0.0769230769230769	16.0	4.0	1.0	-19.78770055393053	0.655	n/a	stim	poldrack-single-stim	s642	False	1
119.825	0.539	120.364	-2.060953311734562	draw_card	0.539	columbia_card_task_fmri	1.0	0.9166666666666666	89.0	-45.0	0.0833333333333333	16.0	5.0	1.0	-19.332433094119285	0.539	n/a	stim	poldrack-single-stim	s642	False	1
120.366	0.51	120.876	-2.409438160219411	draw_card	0.51	columbia_card_task_fmri	1.0	0.9090909090909092	89.0	-45.0	0.0909090909090909	16.0	6.0	1.0	-18.822994268816014	0.51	n/a	stim	poldrack-single-stim	s642	False	1
120.878	0.791	121.669	-2.827619978401229	draw_card	0.791	columbia_card_task_fmri	1.0	0.9	89.0	-45.0	0.1	16.0	7.0	1.0	-18.248003544485517	0.791	n/a	stim	poldrack-single-stim	s642	False	1
121.672	0.602	122.274	-3.33873108951234	end_round	0.602	columbia_card_task_fmri	1.0	0.8888888888888888	71.0	-45.0	0.1111111111111111	16.0	8.0	1.0	-17.59257748522478	0.602	7.0	stim	poldrack-single-stim	s642	False	1
123.028	1.5	122.277	n/a	-1.0	2.454	columbia_card_task_fmri	n/a	n/a	-1.0	n/a	n/a	n/a	n/a	n/a	n/a	n/a	n/a	ITI	poldrack-single-stim	s642	False	0
124.735	3.533	128.268	-0.1651199784012289	draw_card	3.533	columbia_card_task_fmri	15.0	0.8125	89.0	-70.0	0.1875	16.0	1.0	3.0	1.1159399691036782	3.533	1.0	stim	poldrack-single-stim	s642	False	0
129.021	1.5	128.27	n/a	-1.0	2.318	columbia_card_task_fmri	n/a	n/a	-1.0	n/a	n/a	n/a	n/a	n/a	n/a	n/a	n/a	ITI	poldrack-single-stim	s642	False	0
130.593	3.918	134.511	6.772380021598771	draw_card	3.918	columbia_card_task_fmri	30.0	0.7	89.0	-50.0	0.3	10.0	1.0	3.0	4.599139528734696	3.918	n/a	stim	poldrack-single-stim	s642	False	1
134.514	0.987	135.501	4.10571335493211	draw_card	0.987	columbia_card_task_fmri	30.0	0.6666666666666667	89.0	-50.0	0.3333333333333333	10.0	2.0	3.0	5.650668790517159	0.987	n/a	stim	poldrack-single-stim	s642	False	1
135.504	1.561	137.065	0.7723800215987711	draw_card	1.561	columbia_card_task_fmri	30.0	0.625	89.0	-50.0	0.375	10.0	3.0	3.0	6.667932862741829	1.561	3.0	stim	poldrack-single-stim	s642	False	0
137.819	1.5	137.068	n/a	-1.0	2.318	columbia_card_task_fmri	n/a	n/a	-1.0	n/a	n/a	n/a	n/a	n/a	n/a	n/a	n/a	ITI	poldrack-single-stim	s642	False	0
139.39	1.892	141.282	6.172380021598771	draw_card	1.892	columbia_card_task_fmri	17.0	0.8666666666666667	89.0	-70.0	0.1333333333333333	15.0	1.0	2.0	-2.485204107623151	1.892	n/a	stim	poldrack-single-stim	s642	False	1
141.285	0.607	141.892	5.343808593027344	draw_card	0.607	columbia_card_task_fmri	17.0	0.8571428571428572	89.0	-70.0	0.1428571428571428	15.0	2.0	2.0	-1.616146925075384	0.607	n/a	stim	poldrack-single-stim	s642	False	1
141.895	0.58	142.475	4.387764636983386	draw_card	0.58	columbia_card_task_fmri	17.0	0.8461538461538461	89.0	-70.0	0.1538461538461538	15.0	3.0	2.0	-0.6703948471972403	0.58	3.0	stim	poldrack-single-stim	s642	False	0
143.23	1.5	142.479	n/a	-1.0	2.59	columbia_card_task_fmri	n/a	n/a	-1.0	n/a	n/a	n/a	n/a	n/a	n/a	n/a	n/a	ITI	poldrack-single-stim	s642	False	0
145.072	0.555	145.627	1.397380021598771	draw_card	0.555	columbia_card_task_fmri	7.0	0.9375	89.0	-95.0	0.0625	16.0	1.0	1.0	-7.367254559442266	0.555	n/a	stim	poldrack-single-stim	s642	False	1
145.631	1.787	147.418	0.9723800215987712	draw_card	1.787	columbia_card_task_fmri	7.0	0.9333333333333332	89.0	-95.0	0.0666666666666666	16.0	2.0	1.0	-6.614610450597052	1.787	n/a	stim	poldrack-single-stim	s642	False	1
147.421	0.53	147.951	0.4866657358844855	draw_card	0.53	columbia_card_task_fmri	7.0	0.9285714285714286	89.0	-95.0	0.0714285714285714	16.0	3.0	1.0	-5.789232519257183	0.53	n/a	stim	poldrack-single-stim	s642	False	1
147.954	0.936	148.89	-0.0737738245550756	draw_card	0.936	columbia_card_task_fmri	7.0	0.9230769230769232	89.0	-95.0	0.0769230769230769	16.0	4.0	1.0	-4.878755037483931	0.936	4.0	stim	poldrack-single-stim	s642	False	0
149.645	1.5	148.894	n/a	-1.0	2.25	columbia_card_task_fmri	n/a	n/a	-1.0	n/a	n/a	n/a	n/a	n/a	n/a	n/a	n/a	ITI	poldrack-single-stim	s642	False	0
151.148	3.78	154.928	2.959880021598771	draw_card	3.78	columbia_card_task_fmri	9.0	0.9375	89.0	-100.0	0.0625	16.0	1.0	1.0	-5.6735996622775	3.78	n/a	stim	poldrack-single-stim	s642	False	1
154.93	0.605	155.535	2.505713354932104	end_round	0.605	columbia_card_task_fmri	9.0	0.9333333333333332	71.0	-100.0	0.0666666666666666	16.0	2.0	1.0	-4.8692560713187625	0.605	1.0	stim	poldrack-single-stim	s642	False	1
156.289	1.5	155.538	n/a	-1.0	2.25	columbia_card_task_fmri	n/a	n/a	-1.0	n/a	n/a	n/a	n/a	n/a	n/a	n/a	n/a	ITI	poldrack-single-stim	s642	False	0
157.792	1.28	159.072	3.897380021598771	draw_card	1.28	columbia_card_task_fmri	15.0	0.875	89.0	-80.0	0.125	16.0	1.0	2.0	-0.641812141596322	1.28	1.0	stim	poldrack-single-stim	s642	False	0
159.827	1.5	159.076	n/a	-1.0	2.522	columbia_card_task_fmri	n/a	n/a	-1.0	n/a	n/a	n/a	n/a	n/a	n/a	n/a	n/a	ITI	poldrack-single-stim	s642	False	0
161.602	2.296	163.898	6.022380021598771	draw_card	2.296	columbia_card_task_fmri	16.0	0.875	89.0	-70.0	0.125	16.0	1.0	2.0	-3.617289306787775	2.296	n/a	stim	poldrack-single-stim	s642	False	1
163.902	1.114	165.016	5.305713354932104	draw_card	1.114	columbia_card_task_fmri	16.0	0.8666666666666667	89.0	-70.0	0.1333333333333333	16.0	2.0	2.0	-2.8250215238752467	1.114	n/a	stim	poldrack-single-stim	s642	False	1
165.019	1.377	166.396	4.486665735884486	draw_card	1.377	columbia_card_task_fmri	16.0	0.8571428571428572	89.0	-70.0	0.1428571428571428	16.0	3.0	2.0	-1.9659601571454743	1.377	n/a	stim	poldrack-single-stim	s642	False	1
166.399	0.515	166.914	3.541610790829539	end_round	0.515	columbia_card_task_fmri	16.0	0.8461538461538461	71.0	-70.0	0.1538461538461538	16.0	4.0	2.0	-1.0310856142730458	0.515	3.0	stim	poldrack-single-stim	s642	False	1
167.669	1.5	166.918	n/a	-1.0	2.454	columbia_card_task_fmri	n/a	n/a	-1.0	n/a	n/a	n/a	n/a	n/a	n/a	n/a	n/a	ITI	poldrack-single-stim	s642	False	0
169.376	3.742	173.118	7.334880021598771	draw_card	3.742	columbia_card_task_fmri	30.0	0.6875	89.0	-45.0	0.3125	16.0	1.0	5.0	2.7024082564059317	3.742	n/a	stim	poldrack-single-stim	s642	False	1
173.122	0.722	173.844	5.772380021598774	draw_card	0.722	columbia_card_task_fmri	30.0	0.6666666666666667	89.0	-45.0	0.3333333333333333	16.0	2.0	5.0	3.2941733085951768	0.722	n/a	stim	poldrack-single-stim	s642	False	1
173.847	0.71	174.557	3.9866657358844826	end_round	0.71	columbia_card_task_fmri	30.0	0.6428571428571428	71.0	-45.0	0.3571428571428571	16.0	3.0	5.0	3.875504568973703	0.71	2.0	stim	poldrack-single-stim	s642	False	1
175.312	1.5	174.561	n/a	-1.0	2.25	columbia_card_task_fmri	n/a	n/a	-1.0	n/a	n/a	n/a	n/a	n/a	n/a	n/a	n/a	ITI	poldrack-single-stim	s642	False	0
176.817	2.882	179.699	-0.894286645067895	draw_card	2.882	columbia_card_task_fmri	13.0	0.8333333333333334	89.0	-75.0	0.1666666666666666	6.0	1.0	1.0	0.7351561492599572	2.882	n/a	stim	poldrack-single-stim	s642	False	1
179.702	0.956	180.658	-3.827619978401229	draw_card	0.956	columbia_card_task_fmri	13.0	0.8	89.0	-75.0	0.2	6.0	2.0	1.0	3.1388714677761698	0.956	n/a	stim	poldrack-single-stim	s642	False	1
180.661	0.685	181.346	-8.22761997840123	end_round	0.685	columbia_card_task_fmri	13.0	0.75	71.0	-75.0	0.25	6.0	3.0	1.0	6.043343394657377	0.685	2.0	stim	poldrack-single-stim	s642	False	1
182.099	1.5	181.348	n/a	-1.0	2.454	columbia_card_task_fmri	n/a	n/a	-1.0	n/a	n/a	n/a	n/a	n/a	n/a	n/a	n/a	ITI	poldrack-single-stim	s642	False	0
183.806	1.985	185.791	0.7723800215987728	draw_card	1.985	columbia_card_task_fmri	14.0	0.8333333333333334	89.0	-70.0	0.1666666666666666	6.0	1.0	1.0	-0.7551229163928355	1.985	1.0	stim	poldrack-single-stim	s642	False	0
186.544	1.5	185.793	n/a	-1.0	2.454	columbia_card_task_fmri	n/a	n/a	-1.0	n/a	n/a	n/a	n/a	n/a	n/a	n/a	n/a	ITI	poldrack-single-stim	s642	False	0
188.249	1.322	189.571	0.7723800215987728	draw_card	1.322	columbia_card_task_fmri	16.0	0.8333333333333334	89.0	-80.0	0.1666666666666666	6.0	1.0	1.0	3.7158224696413527	1.322	n/a	stim	poldrack-single-stim	s642	False	1
189.574	0.797	190.371	-2.4276199784012285	draw_card	0.797	columbia_card_task_fmri	16.0	0.8	89.0	-80.0	0.2	6.0	2.0	1.0	6.338165533830235	0.797	n/a	stim	poldrack-single-stim	s642	False	1
190.374	1.077	191.451	-7.227619978401229	draw_card	1.077	columbia_card_task_fmri	16.0	0.75	89.0	-80.0	0.25	6.0	3.0	1.0	9.506792864220929	1.077	3.0	stim	poldrack-single-stim	s642	False	0
192.205	1.5	191.454	n/a	-1.0	2.522	columbia_card_task_fmri	n/a	n/a	-1.0	n/a	n/a	n/a	n/a	n/a	n/a	n/a	n/a	ITI	poldrack-single-stim	s642	False	0
193.98	2.317	196.297	3.2723800215987726	draw_card	2.317	columbia_card_task_fmri	17.0	0.8333333333333334	89.0	-70.0	0.1666666666666666	6.0	1.0	1.0	0.3625826523838995	2.317	n/a	stim	poldrack-single-stim	s642	False	1
196.301	0.442	196.743	0.3723800215987725	draw_card	0.442	columbia_card_task_fmri	17.0	0.8	89.0	-70.0	0.2	6.0	2.0	1.0	2.7389688347226127	0.442	n/a	stim	poldrack-single-stim	s642	False	1
196.747	0.479	197.226	-3.977619978401229	end_round	0.479	columbia_card_task_fmri	17.0	0.75	71.0	-70.0	0.25	6.0	3.0	1.0	5.610420641314292	0.479	2.0	stim	poldrack-single-stim	s642	False	1
197.98	1.5	197.229	n/a	-1.0	2.454	columbia_card_task_fmri	n/a	n/a	-1.0	n/a	n/a	n/a	n/a	n/a	n/a	n/a	n/a	ITI	poldrack-single-stim	s642	False	0
199.686	3.486	203.172	3.272380021598771	draw_card	3.486	columbia_card_task_fmri	25.0	0.75	89.0	-65.0	0.25	8.0	1.0	2.0	6.90919489611386	3.486	n/a	stim	poldrack-single-stim	s642	False	1
203.175	0.481	203.656	0.0580943073130593	draw_card	0.481	columbia_card_task_fmri	25.0	0.7142857142857143	89.0	-65.0	0.2857142857142857	8.0	2.0	2.0	8.595589915697417	0.481	2.0	stim	poldrack-single-stim	s642	False	0
204.411	1.5	203.66	n/a	-1.0	2.658	columbia_card_task_fmri	n/a	n/a	-1.0	n/a	n/a	n/a	n/a	n/a	n/a	n/a	n/a	ITI	poldrack-single-stim	s642	False	0
206.324	3.698	210.022	3.272380021598771	draw_card	3.698	columbia_card_task_fmri	30.0	0.75	89.0	-80.0	0.25	8.0	1.0	2.0	15.568057635968929	3.698	n/a	stim	poldrack-single-stim	s642	False	1
210.025	1.341	211.366	-0.6561914069726524	draw_card	1.341	columbia_card_task_fmri	30.0	0.7142857142857143	89.0	-80.0	0.2857142857142857	8.0	2.0	2.0	17.62933533902565	1.341	n/a	stim	poldrack-single-stim	s642	False	1
211.369	0.668	212.037	-5.89428664506789	end_round	0.668	columbia_card_task_fmri	30.0	0.6666666666666667	71.0	-80.0	0.3333333333333333	8.0	3.0	2.0	19.79064779156036	0.668	2.0	stim	poldrack-single-stim	s642	False	1
212.792	1.5	212.041	n/a	-1.0	2.386	columbia_card_task_fmri	n/a	n/a	-1.0	n/a	n/a	n/a	n/a	n/a	n/a	n/a	n/a	ITI	poldrack-single-stim	s642	False	0
214.431	2.266	216.697	2.972380021598772	draw_card	2.266	columbia_card_task_fmri	13.0	0.9	89.0	-95.0	0.1	10.0	1.0	1.0	0.3396035025229835	2.266	n/a	stim	poldrack-single-stim	s642	False	1
216.701	0.443	217.144	1.772380021598771	draw_card	0.443	columbia_card_task_fmri	13.0	0.8888888888888888	89.0	-95.0	0.1111111111111111	10.0	2.0	1.0	1.880311147904969	0.443	n/a	stim	poldrack-single-stim	s642	False	1
217.148	0.819	217.967	0.272380021598771	draw_card	0.819	columbia_card_task_fmri	13.0	0.875	89.0	-95.0	0.125	10.0	3.0	1.0	3.656391399997247	0.819	n/a	stim	poldrack-single-stim	s642	False	1
217.969	0.516	218.485	-1.656191406972656	end_round	0.516	columbia_card_task_fmri	13.0	0.8571428571428572	71.0	-95.0	0.1428571428571428	10.0	4.0	1.0	5.730417898430289	0.516	3.0	stim	poldrack-single-stim	s642	False	1
219.24	1.5	218.489	n/a	-1.0	2.522	columbia_card_task_fmri	n/a	n/a	-1.0	n/a	n/a	n/a	n/a	n/a	n/a	n/a	n/a	ITI	poldrack-single-stim	s642	False	0
221.016	2.242	223.258	4.3723800215987705	draw_card	2.242	columbia_card_task_fmri	14.0	0.9	89.0	-90.0	0.1	10.0	1.0	1.0	-0.8600425641599472	2.242	n/a	stim	poldrack-single-stim	s642	False	1
223.261	0.599	223.86	3.2168244660432137	draw_card	0.599	columbia_card_task_fmri	14.0	0.8888888888888888	89.0	-90.0	0.1111111111111111	10.0	2.0	1.0	0.6235703017427099	0.599	n/a	stim	poldrack-single-stim	s642	False	1
223.863	0.424	224.287	1.772380021598771	end_round	0.424	columbia_card_task_fmri	14.0	0.875	71.0	-90.0	0.125	10.0	3.0	1.0	2.333836827765431	0.424	2.0	stim	poldrack-single-stim	s642	False	1
225.041	1.5	224.29	n/a	-1.0	2.59	columbia_card_task_fmri	n/a	n/a	-1.0	n/a	n/a	n/a	n/a	n/a	n/a	n/a	n/a	ITI	poldrack-single-stim	s642	False	0
226.885	2.233	229.118	-0.4276199784012282	draw_card	2.233	columbia_card_task_fmri	16.0	0.8	89.0	-70.0	0.2	10.0	1.0	2.0	2.339068465170648	2.233	n/a	stim	poldrack-single-stim	s642	False	1
229.121	0.426	229.547	-2.33873108951234	draw_card	0.426	columbia_card_task_fmri	16.0	0.7777777777777778	89.0	-70.0	0.2222222222222222	10.0	2.0	2.0	3.692355330446965	0.426	n/a	stim	poldrack-single-stim	s642	False	1
229.551	0.581	230.132	-4.727619978401229	draw_card	0.581	columbia_card_task_fmri	16.0	0.75	89.0	-70.0	0.25	10.0	3.0	2.0	5.177499979130971	0.581	n/a	stim	poldrack-single-stim	s642	False	1
230.135	0.662	230.797	-7.7990485498298	end_round	0.662	columbia_card_task_fmri	16.0	0.7142857142857143	71.0	-70.0	0.2857142857142857	10.0	4.0	2.0	6.78891524471338	0.662	3.0	stim	poldrack-single-stim	s642	False	1
231.551	1.5	230.8	n/a	-1.0	2.386	columbia_card_task_fmri	n/a	n/a	-1.0	n/a	n/a	n/a	n/a	n/a	n/a	n/a	n/a	ITI	poldrack-single-stim	s642	False	0
233.192	2.837	236.029	-1.144286645067895	draw_card	2.837	columbia_card_task_fmri	7.0	0.9166666666666666	89.0	-100.0	0.0833333333333333	12.0	1.0	1.0	-2.486279205858839	2.837	n/a	stim	poldrack-single-stim	s642	False	1
236.033	0.991	237.024	-1.9548927056739571	draw_card	0.991	columbia_card_task_fmri	7.0	0.9090909090909092	89.0	-100.0	0.0909090909090909	12.0	2.0	1.0	-1.2995687391421529	0.991	n/a	stim	poldrack-single-stim	s642	False	1
237.027	1.2	238.227	-2.9276199784012293	end_round	1.2	columbia_card_task_fmri	7.0	0.9	71.0	-100.0	0.1	12.0	3.0	1.0	0.0396895060949376	1.2	2.0	stim	poldrack-single-stim	s642	False	1
238.982	1.5	238.231	n/a	-1.0	2.59	columbia_card_task_fmri	n/a	n/a	-1.0	n/a	n/a	n/a	n/a	n/a	n/a	n/a	n/a	ITI	poldrack-single-stim	s642	False	0
240.827	7.384	248.211	-0.8942866450678932	draw_card	7.384	columbia_card_task_fmri	14.0	0.8333333333333334	89.0	-80.0	0.1666666666666666	12.0	1.0	2.0	2.970643803867951	7.384	n/a	stim	poldrack-single-stim	s642	False	1
248.215	0.475	248.69	-2.3185290693103227	draw_card	0.475	columbia_card_task_fmri	14.0	0.8181818181818181	89.0	-80.0	0.1818181818181818	12.0	2.0	2.0	4.193918043050161	0.475	n/a	stim	poldrack-single-stim	s642	False	1
248.693	0.625	249.318	-4.027619978401228	draw_card	0.625	columbia_card_task_fmri	14.0	0.8	89.0	-80.0	0.2	12.0	3.0	2.0	5.5383307560332895	0.625	3.0	stim	poldrack-single-stim	s642	False	0
250.073	1.5	249.322	n/a	-1.0	2.318	columbia_card_task_fmri	n/a	n/a	-1.0	n/a	n/a	n/a	n/a	n/a	n/a	n/a	n/a	ITI	poldrack-single-stim	s642	False	0
251.645	1.446	253.091	0.7723800215987711	draw_card	1.446	columbia_card_task_fmri	15.0	0.8333333333333334	89.0	-75.0	0.1666666666666666	12.0	1.0	2.0	1.4803101068148408	1.446	1.0	stim	poldrack-single-stim	s642	False	0
253.846	1.5	253.095	n/a	-1.0	2.25	columbia_card_task_fmri	n/a	n/a	-1.0	n/a	n/a	n/a	n/a	n/a	n/a	n/a	n/a	ITI	poldrack-single-stim	s642	False	0
255.351	1.712	257.063	-0.2276199784012289	draw_card	1.712	columbia_card_task_fmri	15.0	0.8	89.0	-65.0	0.2	15.0	1.0	3.0	-0.0602814678552121	1.712	1.0	stim	poldrack-single-stim	s642	False	0
257.817	1.5	257.066	n/a	-1.0	2.454	columbia_card_task_fmri	n/a	n/a	-1.0	n/a	n/a	n/a	n/a	n/a	n/a	n/a	n/a	ITI	poldrack-single-stim	s642	False	0
259.526	1.629	261.155	-0.9776199784012288	draw_card	1.629	columbia_card_task_fmri	14.0	0.8125	89.0	-70.0	0.1875	16.0	1.0	3.0	0.7257345841401701	1.629	1.0	stim	poldrack-single-stim	s642	False	0
261.91	1.5	261.159	n/a	-1.0	3.27	columbia_card_task_fmri	n/a	n/a	-1.0	n/a	n/a	n/a	n/a	n/a	n/a	n/a	n/a	ITI	poldrack-single-stim	s642	False	0
264.435	1.906	266.341	-1.040119978401229	end_round	1.906	columbia_card_task_fmri	11.0	0.6875	71.0	-30.0	0.3125	16.0	1.0	5.0	-13.049903461578111	1.906	0.0	stim	poldrack-single-stim	s642	False	1
267.096	1.5	266.345	n/a	-1.0	2.25	columbia_card_task_fmri	n/a	n/a	-1.0	n/a	n/a	n/a	n/a	n/a	n/a	n/a	n/a	ITI	poldrack-single-stim	s642	False	0
268.599	1.423	270.022	3.772380021598771	draw_card	1.423	columbia_card_task_fmri	15.0	0.8666666666666667	89.0	-75.0	0.1333333333333333	15.0	1.0	2.0	-1.4657362374699652	1.423	n/a	stim	poldrack-single-stim	s642	False	1
270.027	1.017	271.044	2.915237164455915	draw_card	1.017	columbia_card_task_fmri	15.0	0.8571428571428572	89.0	-75.0	0.1428571428571428	15.0	2.0	2.0	-0.566692052689767	1.017	n/a	stim	poldrack-single-stim	s642	False	1
271.048	1.816	272.864	1.9262261754449244	end_round	1.816	columbia_card_task_fmri	15.0	0.8461538461538461	71.0	-75.0	0.1538461538461538	15.0	3.0	2.0	0.4116921736453349	1.816	2.0	stim	poldrack-single-stim	s642	False	1
273.619	1.5	272.868	n/a	-1.0	2.25	columbia_card_task_fmri	n/a	n/a	-1.0	n/a	n/a	n/a	n/a	n/a	n/a	n/a	n/a	ITI	poldrack-single-stim	s642	False	0
275.123	1.335	276.458	5.505713354932105	draw_card	1.335	columbia_card_task_fmri	17.0	0.8666666666666667	89.0	-75.0	0.1333333333333333	15.0	1.0	2.0	-0.7860788213225476	1.335	n/a	stim	poldrack-single-stim	s642	False	1
276.462	0.579	277.041	4.62952287874163	draw_card	0.579	columbia_card_task_fmri	17.0	0.8571428571428572	89.0	-75.0	0.1428571428571428	15.0	2.0	2.0	0.1329563514134975	0.579	n/a	stim	poldrack-single-stim	s642	False	1
277.045	0.471	277.516	3.6185338677526175	draw_card	0.471	columbia_card_task_fmri	17.0	0.8461538461538461	89.0	-75.0	0.1538461538461538	15.0	3.0	2.0	1.133094987689681	0.471	n/a	stim	poldrack-single-stim	s642	False	1
277.52	0.737	278.257	2.4390466882654387	draw_card	0.737	columbia_card_task_fmri	17.0	0.8333333333333334	89.0	-75.0	0.1666666666666666	15.0	4.0	2.0	2.2254728450806525	0.737	n/a	stim	poldrack-single-stim	s642	False	1
278.261	2.949	281.21	1.0451072943260429	end_round	2.949	columbia_card_task_fmri	17.0	0.8181818181818181	71.0	-75.0	0.1818181818181818	15.0	5.0	2.0	3.422707620732325	2.949	4.0	stim	poldrack-single-stim	s642	False	1
281.966	1.5	281.215	n/a	-1.0	2.318	columbia_card_task_fmri	n/a	n/a	-1.0	n/a	n/a	n/a	n/a	n/a	n/a	n/a	n/a	ITI	poldrack-single-stim	s642	False	0
283.539	3.042	286.581	1.084880021598771	draw_card	3.042	columbia_card_task_fmri	2.0	0.9375	89.0	-25.0	0.0625	16.0	1.0	1.0	-25.48846069910617	3.042	n/a	stim	poldrack-single-stim	s642	False	1
286.584	0.452	287.036	0.972380021598771	draw_card	0.452	columbia_card_task_fmri	2.0	0.9333333333333332	89.0	-25.0	0.0666666666666666	16.0	2.0	1.0	-25.290473939689747	0.452	n/a	stim	poldrack-single-stim	s642	False	1
287.041	1.075	288.116	0.8438085930273427	end_round	1.075	columbia_card_task_fmri	2.0	0.9285714285714286	71.0	-25.0	0.0714285714285714	16.0	3.0	1.0	-25.07327308561963	1.075	2.0	stim	poldrack-single-stim	s642	False	1
288.871	1.5	288.12	n/a	-1.0	2.726	columbia_card_task_fmri	n/a	n/a	-1.0	n/a	n/a	n/a	n/a	n/a	n/a	n/a	n/a	ITI	poldrack-single-stim	s642	False	0
290.852	2.392	293.244	3.272380021598771	draw_card	2.392	columbia_card_task_fmri	9.0	0.9375	89.0	-95.0	0.0625	16.0	1.0	1.0	-6.883363802761704	2.392	n/a	stim	poldrack-single-stim	s642	False	1
293.248	0.852	294.1	2.839046688265438	draw_card	0.852	columbia_card_task_fmri	9.0	0.9333333333333332	89.0	-95.0	0.0666666666666666	16.0	2.0	1.0	-6.115948099179281	0.852	n/a	stim	poldrack-single-stim	s642	False	1
294.104	0.569	294.673	2.343808593027343	draw_card	0.569	columbia_card_task_fmri	9.0	0.9285714285714286	89.0	-95.0	0.0714285714285714	16.0	3.0	1.0	-5.274371992783109	0.569	n/a	stim	poldrack-single-stim	s642	False	1
294.677	0.69	295.367	1.772380021598771	draw_card	0.69	columbia_card_task_fmri	9.0	0.9230769230769232	89.0	-95.0	0.0769230769230769	16.0	4.0	1.0	-4.346027250184484	0.69	n/a	stim	poldrack-single-stim	s642	False	1
295.37	0.545	295.915	1.105713354932105	draw_card	0.545	columbia_card_task_fmri	9.0	0.9166666666666666	89.0	-95.0	0.0833333333333333	16.0	5.0	1.0	-3.315144604701679	0.545	n/a	stim	poldrack-single-stim	s642	False	1
295.919	0.474	296.393	0.317834567053316	draw_card	0.474	columbia_card_task_fmri	9.0	0.9090909090909092	89.0	-95.0	0.0909090909090909	16.0	6.0	1.0	-2.161728513598049	0.474	n/a	stim	poldrack-single-stim	s642	False	1
296.397	0.731	297.128	-0.6276199784012293	draw_card	0.731	columbia_card_task_fmri	9.0	0.9	89.0	-95.0	0.1	16.0	7.0	1.0	-0.8600425641599472	0.731	n/a	stim	poldrack-single-stim	s642	False	1
297.132	0.918	298.05	-1.7831755339567843	draw_card	0.918	columbia_card_task_fmri	9.0	0.8888888888888888	89.0	-95.0	0.1111111111111111	16.0	8.0	1.0	0.6235703017427099	0.918	8.0	stim	poldrack-single-stim	s642	False	0
298.806	1.5	298.055	n/a	-1.0	2.386	columbia_card_task_fmri	n/a	n/a	-1.0	n/a	n/a	n/a	n/a	n/a	n/a	n/a	n/a	ITI	poldrack-single-stim	s642	False	0
300.446	1.93	302.376	4.834880021598771	draw_card	1.93	columbia_card_task_fmri	11.0	0.9375	89.0	-100.0	0.0625	16.0	1.0	1.0	-5.189680313598547	1.93	n/a	stim	poldrack-single-stim	s642	False	1
302.379	0.47	302.849	4.372380021598771	draw_card	0.47	columbia_card_task_fmri	11.0	0.9333333333333332	89.0	-100.0	0.0666666666666666	16.0	2.0	1.0	-4.370565971907155	0.47	n/a	stim	poldrack-single-stim	s642	False	1
302.853	0.386	303.239	3.843808593027344	draw_card	0.386	columbia_card_task_fmri	11.0	0.9285714285714286	89.0	-100.0	0.0714285714285714	16.0	3.0	1.0	-3.472298256433046	0.386	n/a	stim	poldrack-single-stim	s642	False	1
303.244	0.391	303.635	3.2339184831372334	end_round	0.391	columbia_card_task_fmri	11.0	0.9230769230769232	71.0	-100.0	0.0769230769230769	16.0	4.0	1.0	-2.481420170366299	0.391	3.0	stim	poldrack-single-stim	s642	False	1
304.389	1.5	303.638	n/a	-1.0	2.318	columbia_card_task_fmri	n/a	n/a	-1.0	n/a	n/a	n/a	n/a	n/a	n/a	n/a	n/a	ITI	poldrack-single-stim	s642	False	0
305.962	3.32	309.282	5.397380021598771	draw_card	3.32	columbia_card_task_fmri	16.0	0.875	89.0	-75.0	0.125	16.0	1.0	2.0	-1.9642706757441173	3.32	n/a	stim	poldrack-single-stim	s642	False	1
309.286	0.736	310.022	4.639046688265438	draw_card	0.736	columbia_card_task_fmri	16.0	0.8666666666666667	89.0	-75.0	0.1333333333333333	16.0	2.0	2.0	-1.1259086928760595	0.736	n/a	stim	poldrack-single-stim	s642	False	1
310.026	0.576	310.602	3.7723800215987726	draw_card	0.576	columbia_card_task_fmri	16.0	0.8571428571428572	89.0	-75.0	0.1428571428571428	16.0	3.0	2.0	-0.2168689809532367	0.576	3.0	stim	poldrack-single-stim	s642	False	0
311.357	1.5	310.606	n/a	-1.0	2.25	columbia_card_task_fmri	n/a	n/a	-1.0	n/a	n/a	n/a	n/a	n/a	n/a	n/a	n/a	ITI	poldrack-single-stim	s642	False	0
312.862	1.131	313.993	5.647380021598771	draw_card	1.131	columbia_card_task_fmri	17.0	0.875	89.0	-80.0	0.125	16.0	1.0	2.0	0.0194300203706419	1.131	n/a	stim	poldrack-single-stim	s642	False	1
313.997	0.428	314.425	4.839046688265439	draw_card	0.428	columbia_card_task_fmri	17.0	0.8666666666666667	89.0	-80.0	0.1333333333333333	16.0	2.0	2.0	0.913102923414904	0.428	n/a	stim	poldrack-single-stim	s642	False	1
314.43	0.586	315.016	3.9152371644559167	end_round	0.586	columbia_card_task_fmri	17.0	0.8571428571428572	71.0	-80.0	0.1428571428571428	16.0	3.0	2.0	1.882114476955536	0.586	2.0	stim	poldrack-single-stim	s642	False	1
315.772	1.5	315.021	n/a	-1.0	2.25	columbia_card_task_fmri	n/a	n/a	-1.0	n/a	n/a	n/a	n/a	n/a	n/a	n/a	n/a	ITI	poldrack-single-stim	s642	False	0
328.281	2.591	330.872	-0.060953311734561	draw_card	2.591	columbia_card_task_fmri	13.0	0.8333333333333334	89.0	-70.0	0.1666666666666666	6.0	1.0	1.0	-1.127686165913719	2.591	n/a	stim	poldrack-single-stim	s642	False	1
330.877	0.583	331.46	-2.827619978401229	draw_card	0.583	columbia_card_task_fmri	13.0	0.8	89.0	-70.0	0.2	6.0	2.0	1.0	1.139381755230076	0.583	n/a	stim	poldrack-single-stim	s642	False	1
331.463	0.406	331.869	-6.977619978401229	end_round	0.406	columbia_card_task_fmri	13.0	0.75	71.0	-70.0	0.25	6.0	3.0	1.0	3.878751295043564	0.406	2.0	stim	poldrack-single-stim	s642	False	1
332.624	1.5	331.873	n/a	-1.0	2.454	columbia_card_task_fmri	n/a	n/a	-1.0	n/a	n/a	n/a	n/a	n/a	n/a	n/a	n/a	ITI	poldrack-single-stim	s642	False	0
334.333	1.452	335.785	-0.060953311734561	draw_card	1.452	columbia_card_task_fmri	15.0	0.8333333333333334	89.0	-80.0	0.1666666666666666	6.0	1.0	1.0	3.343232203789114	1.452	n/a	stim	poldrack-single-stim	s642	False	1
335.789	0.451	336.24	-3.227619978401229	draw_card	0.451	columbia_card_task_fmri	15.0	0.8	89.0	-80.0	0.2	6.0	2.0	1.0	5.938247275610578	0.451	2.0	stim	poldrack-single-stim	s642	False	0
336.995	1.5	336.244	n/a	-1.0	2.454	columbia_card_task_fmri	n/a	n/a	-1.0	n/a	n/a	n/a	n/a	n/a	n/a	n/a	n/a	ITI	poldrack-single-stim	s642	False	0
338.703	3.978	342.681	1.605713354932105	draw_card	3.978	columbia_card_task_fmri	16.0	0.8333333333333334	89.0	-75.0	0.1666666666666666	6.0	1.0	1.0	1.8528904145242109	3.978	n/a	stim	poldrack-single-stim	s642	False	1
342.685	0.742	343.427	-1.4276199784012282	end_round	0.742	columbia_card_task_fmri	16.0	0.8	71.0	-75.0	0.2	6.0	2.0	1.0	4.338592202084534	0.742	1.0	stim	poldrack-single-stim	s642	False	1
344.181	1.5	343.43	n/a	-1.0	2.522	columbia_card_task_fmri	n/a	n/a	-1.0	n/a	n/a	n/a	n/a	n/a	n/a	n/a	n/a	ITI	poldrack-single-stim	s642	False	0
345.958	1.5	347.458	2.772380021598771	draw_card	1.5	columbia_card_task_fmri	21.0	0.75	89.0	-55.0	0.25	8.0	1.0	2.0	0.848426522105548	1.5	n/a	stim	poldrack-single-stim	s642	False	1
347.461	1.985	349.446	0.0580943073130575	draw_card	1.985	columbia_card_task_fmri	21.0	0.7142857142857143	89.0	-55.0	0.2857142857142857	8.0	2.0	2.0	2.27238561461288	1.985	2.0	stim	poldrack-single-stim	s642	False	0
350.202	1.5	349.451	n/a	-1.0	2.386	columbia_card_task_fmri	n/a	n/a	-1.0	n/a	n/a	n/a	n/a	n/a	n/a	n/a	n/a	ITI	poldrack-single-stim	s642	False	0
351.843	2.042	353.885	4.022380021598771	draw_card	2.042	columbia_card_task_fmri	26.0	0.75	89.0	-65.0	0.25	8.0	1.0	2.0	7.342123512525809	2.042	n/a	stim	poldrack-single-stim	s642	False	1
353.889	0.409	354.298	0.7723800215987746	draw_card	0.409	columbia_card_task_fmri	26.0	0.7142857142857143	89.0	-65.0	0.2857142857142857	8.0	2.0	2.0	9.047263268092564	0.409	2.0	stim	poldrack-single-stim	s642	False	0
355.053	1.5	354.302	n/a	-1.0	2.454	columbia_card_task_fmri	n/a	n/a	-1.0	n/a	n/a	n/a	n/a	n/a	n/a	n/a	n/a	ITI	poldrack-single-stim	s642	False	0
356.764	1.285	358.049	-0.894286645067895	draw_card	1.285	columbia_card_task_fmri	15.0	0.7777777777777778	89.0	-60.0	0.2222222222222222	9.0	1.0	2.0	-0.8795583581077224	1.285	1.0	stim	poldrack-single-stim	s642	False	0
358.804	1.5	358.053	n/a	-1.0	2.522	columbia_card_task_fmri	n/a	n/a	-1.0	n/a	n/a	n/a	n/a	n/a	n/a	n/a	n/a	ITI	poldrack-single-stim	s642	False	0
360.58	1.137	361.717	3.472380021598772	draw_card	1.137	columbia_card_task_fmri	13.0	0.9	89.0	-90.0	0.1	10.0	1.0	1.0	-1.15994978749762	1.137	n/a	stim	poldrack-single-stim	s642	False	1
361.722	1.32	363.042	2.327935577154326	draw_card	1.32	columbia_card_task_fmri	13.0	0.8888888888888888	89.0	-90.0	0.1111111111111111	10.0	2.0	1.0	0.309389188920953	1.32	n/a	stim	poldrack-single-stim	s642	False	1
363.046	0.946	363.992	0.8973800215987711	draw_card	0.946	columbia_card_task_fmri	13.0	0.875	89.0	-90.0	0.125	10.0	3.0	1.0	2.003202079875635	0.946	n/a	stim	poldrack-single-stim	s642	False	1
363.996	0.541	364.537	-0.9419056926869408	end_round	0.541	columbia_card_task_fmri	13.0	0.8571428571428572	71.0	-90.0	0.1428571428571428	10.0	4.0	1.0	3.9811653872714095	0.541	3.0	stim	poldrack-single-stim	s642	False	1
365.292	1.5	364.541	n/a	-1.0	2.522	columbia_card_task_fmri	n/a	n/a	-1.0	n/a	n/a	n/a	n/a	n/a	n/a	n/a	n/a	ITI	poldrack-single-stim	s642	False	0
367.069	2.139	369.208	4.772380021598771	draw_card	2.139	columbia_card_task_fmri	15.0	0.9	89.0	-95.0	0.1	10.0	1.0	1.0	0.9394361845266984	2.139	n/a	stim	poldrack-single-stim	s642	False	1
369.212	0.842	370.054	3.550157799376548	end_round	0.842	columbia_card_task_fmri	15.0	0.8888888888888888	71.0	-95.0	0.1111111111111111	10.0	2.0	1.0	2.508690782248678	0.842	1.0	stim	poldrack-single-stim	s642	False	1
370.809	1.5	370.058	n/a	-1.0	2.59	columbia_card_task_fmri	n/a	n/a	-1.0	n/a	n/a	n/a	n/a	n/a	n/a	n/a	n/a	ITI	poldrack-single-stim	s642	False	0
372.653	1.534	374.187	0.5723800215987718	draw_card	1.534	columbia_card_task_fmri	16.0	0.8	89.0	-65.0	0.2	10.0	1.0	2.0	0.3396035025229906	1.534	n/a	stim	poldrack-single-stim	s642	False	1
374.191	0.778	374.969	-1.2276199784012272	draw_card	0.778	columbia_card_task_fmri	16.0	0.7777777777777778	89.0	-65.0	0.2222222222222222	10.0	2.0	2.0	1.6141715786920514	0.778	n/a	stim	poldrack-single-stim	s642	False	1
374.973	0.622	375.595	-3.477619978401229	draw_card	0.622	columbia_card_task_fmri	16.0	0.75	89.0	-65.0	0.25	10.0	3.0	2.0	3.012930745127427	0.622	n/a	stim	poldrack-single-stim	s642	False	1
375.599	3.998	379.597	-6.37047712125837	end_round	3.998	columbia_card_task_fmri	16.0	0.7142857142857143	71.0	-65.0	0.2857142857142857	10.0	4.0	2.0	4.53061927082841	3.998	3.0	stim	poldrack-single-stim	s642	False	1
380.352	1.5	379.601	n/a	-1.0	2.454	columbia_card_task_fmri	n/a	n/a	-1.0	n/a	n/a	n/a	n/a	n/a	n/a	n/a	n/a	ITI	poldrack-single-stim	s642	False	0
382.062	1.383	383.445	-0.7276199784012289	draw_card	1.383	columbia_card_task_fmri	7.0	0.9166666666666666	89.0	-95.0	0.0833333333333333	12.0	1.0	1.0	-3.8677120392655615	1.383	n/a	stim	poldrack-single-stim	s642	False	1
383.448	1.965	385.413	-1.5003472511285023	draw_card	1.965	columbia_card_task_fmri	7.0	0.9090909090909092	89.0	-95.0	0.0909090909090909	12.0	2.0	1.0	-2.7364925643723232	1.965	2.0	stim	poldrack-single-stim	s642	False	0
386.169	1.5	385.418	n/a	-1.0	2.318	columbia_card_task_fmri	n/a	n/a	-1.0	n/a	n/a	n/a	n/a	n/a	n/a	n/a	n/a	ITI	poldrack-single-stim	s642	False	0
387.741	3.032	390.773	-0.060953311734561	draw_card	3.032	columbia_card_task_fmri	14.0	0.8333333333333334	89.0	-75.0	0.1666666666666666	12.0	1.0	2.0	1.1077319934710417	3.032	1.0	stim	poldrack-single-stim	s642	False	0
391.528	1.5	390.777	n/a	-1.0	2.25	columbia_card_task_fmri	n/a	n/a	-1.0	n/a	n/a	n/a	n/a	n/a	n/a	n/a	n/a	ITI	poldrack-single-stim	s642	False	0
393.033	1.474	394.507	1.605713354932105	end_round	1.474	columbia_card_task_fmri	15.0	0.8333333333333334	71.0	-70.0	0.1666666666666666	12.0	1.0	2.0	-0.3825569681665328	1.474	0.0	stim	poldrack-single-stim	s642	False	1
395.262	1.5	394.511	n/a	-1.0	2.658	columbia_card_task_fmri	n/a	n/a	-1.0	n/a	n/a	n/a	n/a	n/a	n/a	n/a	n/a	ITI	poldrack-single-stim	s642	False	0
397.174	0.879	398.053	-0.4276199784012282	draw_card	0.879	columbia_card_task_fmri	16.0	0.8	89.0	-70.0	0.2	15.0	1.0	3.0	2.339068465170648	0.879	n/a	stim	poldrack-single-stim	s642	False	1
398.057	0.791	398.848	-1.6561914069726578	draw_card	0.791	columbia_card_task_fmri	16.0	0.7857142857142857	89.0	-70.0	0.2142857142857142	15.0	2.0	3.0	3.226878022416564	0.791	n/a	stim	poldrack-single-stim	s642	False	1
398.853	3.626	402.479	-3.073773824555076	draw_card	3.626	columbia_card_task_fmri	16.0	0.7692307692307692	89.0	-70.0	0.2307692307692307	15.0	3.0	3.0	4.172583546472943	3.626	3.0	stim	poldrack-single-stim	s642	False	0
403.235	1.5	402.484	n/a	-1.0	2.454	columbia_card_task_fmri	n/a	n/a	-1.0	n/a	n/a	n/a	n/a	n/a	n/a	n/a	n/a	ITI	poldrack-single-stim	s642	False	0
404.944	1.961	406.905	-0.0401199784012289	draw_card	1.961	columbia_card_task_fmri	14.0	0.8125	89.0	-65.0	0.1875	16.0	1.0	3.0	-1.2252517298680985	1.961	n/a	stim	poldrack-single-stim	s642	False	1
406.91	0.642	407.552	-1.027619978401228	end_round	0.642	columbia_card_task_fmri	14.0	0.8	71.0	-65.0	0.2	16.0	2.0	3.0	-0.4601635273790769	0.642	1.0	stim	poldrack-single-stim	s642	False	1
408.307	1.5	407.556	n/a	-1.0	2.386	columbia_card_task_fmri	n/a	n/a	-1.0	n/a	n/a	n/a	n/a	n/a	n/a	n/a	n/a	ITI	poldrack-single-stim	s642	False	0
409.949	2.81	412.759	-0.2901199784012289	draw_card	2.81	columbia_card_task_fmri	16.0	0.8125	89.0	-75.0	0.1875	16.0	1.0	3.0	3.4572216404520333	2.81	n/a	stim	poldrack-single-stim	s642	False	1
412.763	1.065	413.828	-1.4276199784012282	draw_card	1.065	columbia_card_task_fmri	16.0	0.8	89.0	-75.0	0.2	16.0	2.0	3.0	4.338592202084534	1.065	n/a	stim	poldrack-single-stim	s642	False	1
413.831	0.613	414.444	-2.7276199784012274	end_round	0.613	columbia_card_task_fmri	16.0	0.7857142857142857	71.0	-75.0	0.2142857142857142	16.0	3.0	3.0	5.278043252922096	0.613	2.0	stim	poldrack-single-stim	s642	False	1
415.2	1.5	414.449	n/a	-1.0	2.59	columbia_card_task_fmri	n/a	n/a	-1.0	n/a	n/a	n/a	n/a	n/a	n/a	n/a	n/a	ITI	poldrack-single-stim	s642	False	0
417.045	2.992	420.037	3.972380021598772	end_round	2.992	columbia_card_task_fmri	16.0	0.8666666666666667	71.0	-80.0	0.1333333333333333	15.0	1.0	2.0	0.5732624809855764	2.992	0.0	stim	poldrack-single-stim	s642	False	1
420.793	1.5	420.042	n/a	-1.0	2.318	columbia_card_task_fmri	n/a	n/a	-1.0	n/a	n/a	n/a	n/a	n/a	n/a	n/a	n/a	ITI	poldrack-single-stim	s642	False	0
422.366	1.177	423.543	4.839046688265439	draw_card	1.177	columbia_card_task_fmri	17.0	0.8666666666666667	89.0	-80.0	0.1333333333333333	15.0	1.0	2.0	0.913102923414904	1.177	n/a	stim	poldrack-single-stim	s642	False	1
423.547	0.652	424.199	3.9152371644559167	draw_card	0.652	columbia_card_task_fmri	17.0	0.8571428571428572	89.0	-80.0	0.1428571428571428	15.0	2.0	2.0	1.882114476955536	0.652	n/a	stim	poldrack-single-stim	s642	False	1
424.204	0.685	424.889	2.8493030985218475	draw_card	0.685	columbia_card_task_fmri	17.0	0.8461538461538461	89.0	-80.0	0.1538461538461538	15.0	3.0	2.0	2.936638021284054	0.685	n/a	stim	poldrack-single-stim	s642	False	1
424.893	0.688	425.581	1.6057133549321068	end_round	0.688	columbia_card_task_fmri	17.0	0.8333333333333334	71.0	-80.0	0.1666666666666666	15.0	4.0	2.0	4.088414543742211	0.688	3.0	stim	poldrack-single-stim	s642	False	1
426.336	1.5	425.585	n/a	-1.0	2.59	columbia_card_task_fmri	n/a	n/a	-1.0	n/a	n/a	n/a	n/a	n/a	n/a	n/a	n/a	ITI	poldrack-single-stim	s642	False	0
428.182	2.006	430.188	0.7723800215987711	draw_card	2.006	columbia_card_task_fmri	1.0	0.9375	89.0	-15.0	0.0625	16.0	1.0	1.0	-28.12035212147441	2.006	n/a	stim	poldrack-single-stim	s642	False	1
430.193	0.448	430.641	0.7057133549321044	draw_card	0.448	columbia_card_task_fmri	1.0	0.9333333333333332	89.0	-15.0	0.0666666666666666	16.0	2.0	1.0	-28.004449653449456	0.448	2.0	stim	poldrack-single-stim	s642	False	0
431.397	1.5	430.646	n/a	-1.0	2.386	columbia_card_task_fmri	n/a	n/a	-1.0	n/a	n/a	n/a	n/a	n/a	n/a	n/a	n/a	ITI	poldrack-single-stim	s642	False	0
433.039	1.97	435.009	3.897380021598771	draw_card	1.97	columbia_card_task_fmri	10.0	0.9375	89.0	-100.0	0.0625	16.0	1.0	1.0	-5.43164091267084	1.97	n/a	stim	poldrack-single-stim	s642	False	1
435.014	0.947	435.961	3.439046688265438	draw_card	0.947	columbia_card_task_fmri	10.0	0.9333333333333332	89.0	-100.0	0.0666666666666666	16.0	2.0	1.0	-4.619911919044025	0.947	n/a	stim	poldrack-single-stim	s642	False	1
435.966	0.711	436.677	2.915237164455915	end_round	0.711	columbia_card_task_fmri	10.0	0.9285714285714286	71.0	-100.0	0.0714285714285714	16.0	3.0	1.0	-3.7297428278907887	0.711	2.0	stim	poldrack-single-stim	s642	False	1
437.432	1.5	436.681	n/a	-1.0	2.318	columbia_card_task_fmri	n/a	n/a	-1.0	n/a	n/a	n/a	n/a	n/a	n/a	n/a	n/a	ITI	poldrack-single-stim	s642	False	0
439.005	2.026	441.031	4.522380021598771	draw_card	2.026	columbia_card_task_fmri	15.0	0.875	89.0	-75.0	0.125	16.0	1.0	2.0	-2.294879518790569	2.026	1.0	stim	poldrack-single-stim	s642	False	0
441.786	1.5	441.035	n/a	-1.0	2.318	columbia_card_task_fmri	n/a	n/a	-1.0	n/a	n/a	n/a	n/a	n/a	n/a	n/a	n/a	ITI	poldrack-single-stim	s642	False	0
443.359	1.143	444.502	4.772380021598771	draw_card	1.143	columbia_card_task_fmri	16.0	0.875	89.0	-80.0	0.125	16.0	1.0	2.0	-0.3111920792534057	1.143	n/a	stim	poldrack-single-stim	s642	False	1
444.506	0.644	445.15	3.972380021598772	draw_card	0.644	columbia_card_task_fmri	16.0	0.8666666666666667	89.0	-80.0	0.1333333333333333	16.0	2.0	2.0	0.5732624809855764	0.644	n/a	stim	poldrack-single-stim	s642	False	1
445.155	0.936	446.091	3.058094307313059	end_round	0.936	columbia_card_task_fmri	16.0	0.8571428571428572	71.0	-80.0	0.1428571428571428	16.0	3.0	2.0	1.5322788750660052	0.936	2.0	stim	poldrack-single-stim	s642	False	1
446.847	1.5	446.096	n/a	-1.0	2.318	columbia_card_task_fmri	n/a	n/a	-1.0	n/a	n/a	n/a	n/a	n/a	n/a	n/a	n/a	ITI	poldrack-single-stim	s642	False	0
448.421	3.572	451.993	1.959880021598771	draw_card	3.572	columbia_card_task_fmri	4.0	0.6875	89.0	-5.0	0.3125	16.0	1.0	5.0	-27.82708875568593	3.572	n/a	stim	poldrack-single-stim	s642	False	1
451.997	0.912	452.909	1.7723800215987715	draw_card	0.912	columbia_card_task_fmri	4.0	0.6666666666666667	89.0	-5.0	0.3333333333333333	16.0	2.0	5.0	-27.757227370665756	0.912	2.0	stim	poldrack-single-stim	s642	False	0
453.663	1.5	452.912	n/a	-1.0	2.386	columbia_card_task_fmri	n/a	n/a	-1.0	n/a	n/a	n/a	n/a	n/a	n/a	n/a	n/a	ITI	poldrack-single-stim	s642	False	0
455.305	1.219	456.524	-0.8942866450678932	draw_card	1.219	columbia_card_task_fmri	14.0	0.8333333333333334	89.0	-80.0	0.1666666666666666	6.0	1.0	1.0	2.970643803867951	1.219	1.0	stim	poldrack-single-stim	s642	False	0
457.279	1.5	456.528	n/a	-1.0	2.25	columbia_card_task_fmri	n/a	n/a	-1.0	n/a	n/a	n/a	n/a	n/a	n/a	n/a	n/a	ITI	poldrack-single-stim	s642	False	0
458.784	0.873	459.657	0.7723800215987711	draw_card	0.873	columbia_card_task_fmri	15.0	0.8333333333333334	89.0	-75.0	0.1666666666666666	6.0	1.0	1.0	1.4803101068148408	0.873	1.0	stim	poldrack-single-stim	s642	False	0
460.413	1.5	459.662	n/a	-1.0	2.386	columbia_card_task_fmri	n/a	n/a	-1.0	n/a	n/a	n/a	n/a	n/a	n/a	n/a	n/a	ITI	poldrack-single-stim	s642	False	0
462.055	0.833	462.888	2.4390466882654387	draw_card	0.833	columbia_card_task_fmri	16.0	0.8333333333333334	89.0	-70.0	0.1666666666666666	6.0	1.0	1.0	-0.0099884153200733	0.833	n/a	stim	poldrack-single-stim	s642	False	1
462.893	0.794	463.687	-0.4276199784012282	end_round	0.794	columbia_card_task_fmri	16.0	0.8	71.0	-70.0	0.2	6.0	2.0	1.0	2.339068465170648	0.794	1.0	stim	poldrack-single-stim	s642	False	1
464.442	1.5	463.691	n/a	-1.0	2.59	columbia_card_task_fmri	n/a	n/a	-1.0	n/a	n/a	n/a	n/a	n/a	n/a	n/a	n/a	ITI	poldrack-single-stim	s642	False	0
466.288	0.956	467.244	3.022380021598771	draw_card	0.956	columbia_card_task_fmri	23.0	0.75	89.0	-60.0	0.25	8.0	1.0	2.0	3.878751295043564	0.956	1.0	stim	poldrack-single-stim	s642	False	0
468.0	1.5	467.249	n/a	-1.0	2.658	columbia_card_task_fmri	n/a	n/a	-1.0	n/a	n/a	n/a	n/a	n/a	n/a	n/a	n/a	ITI	poldrack-single-stim	s642	False	0
469.913	0.966	470.879	3.522380021598771	draw_card	0.966	columbia_card_task_fmri	27.0	0.75	89.0	-70.0	0.25	8.0	1.0	2.0	9.939731609470748	0.966	n/a	stim	poldrack-single-stim	s642	False	1
470.883	0.819	471.702	0.0580943073130557	end_round	0.819	columbia_card_task_fmri	27.0	0.7142857142857143	71.0	-70.0	0.2857142857142857	8.0	2.0	2.0	11.75733827250567	0.819	1.0	stim	poldrack-single-stim	s642	False	1
472.459	1.5	471.708	n/a	-1.0	2.386	columbia_card_task_fmri	n/a	n/a	-1.0	n/a	n/a	n/a	n/a	n/a	n/a	n/a	n/a	ITI	poldrack-single-stim	s642	False	0
474.1	1.027	475.127	-1.2276199784012272	draw_card	1.027	columbia_card_task_fmri	16.0	0.7777777777777778	89.0	-65.0	0.2222222222222222	9.0	1.0	2.0	1.6141715786920514	1.027	1.0	stim	poldrack-single-stim	s642	False	0
475.882	1.5	475.131	n/a	-1.0	2.386	columbia_card_task_fmri	n/a	n/a	-1.0	n/a	n/a	n/a	n/a	n/a	n/a	n/a	n/a	ITI	poldrack-single-stim	s642	False	0
477.523	1.111	478.634	3.972380021598772	draw_card	1.111	columbia_card_task_fmri	13.0	0.9	89.0	-85.0	0.1	10.0	1.0	1.0	-2.6594575173391988	1.111	n/a	stim	poldrack-single-stim	s642	False	1
478.639	0.674	479.313	2.8834911327098816	end_round	0.674	columbia_card_task_fmri	13.0	0.8888888888888888	71.0	-85.0	0.1111111111111111	10.0	2.0	1.0	-1.2614892749541795	0.674	1.0	stim	poldrack-single-stim	s642	False	1
480.069	1.5	479.318	n/a	-1.0	2.25	columbia_card_task_fmri	n/a	n/a	-1.0	n/a	n/a	n/a	n/a	n/a	n/a	n/a	n/a	ITI	poldrack-single-stim	s642	False	0
481.575	0.993	482.568	-1.027619978401228	draw_card	0.993	columbia_card_task_fmri	14.0	0.8	89.0	-65.0	0.2	10.0	1.0	2.0	-0.4601635273790769	0.993	n/a	stim	poldrack-single-stim	s642	False	1
482.572	0.73	483.302	-2.7831755339567827	end_round	0.73	columbia_card_task_fmri	14.0	0.7777777777777778	71.0	-65.0	0.2222222222222222	10.0	2.0	2.0	0.7829163166432878	0.73	1.0	stim	poldrack-single-stim	s642	False	1
484.058	1.5	483.307	n/a	-1.0	2.318	columbia_card_task_fmri	n/a	n/a	-1.0	n/a	n/a	n/a	n/a	n/a	n/a	n/a	n/a	ITI	poldrack-single-stim	s642	False	0
485.631	1.801	487.432	0.3723800215987725	end_round	1.801	columbia_card_task_fmri	17.0	0.8	71.0	-70.0	0.2	10.0	1.0	2.0	2.7389688347226127	1.801	0.0	stim	poldrack-single-stim	s642	False	1
488.188	1.5	487.437	n/a	-1.0	2.25	columbia_card_task_fmri	n/a	n/a	-1.0	n/a	n/a	n/a	n/a	n/a	n/a	n/a	n/a	ITI	poldrack-single-stim	s642	False	0
489.693	8.131	497.824	-0.894286645067895	draw_card	8.131	columbia_card_task_fmri	13.0	0.8333333333333334	89.0	-75.0	0.1666666666666666	12.0	1.0	2.0	0.7351561492599572	8.131	n/a	stim	poldrack-single-stim	s642	False	1
497.829	0.669	498.498	-2.227619978401231	draw_card	0.669	columbia_card_task_fmri	13.0	0.8181818181818181	89.0	-75.0	0.1818181818181818	12.0	2.0	2.0	1.880311147904969	0.669	n/a	stim	poldrack-single-stim	s642	False	1
498.502	0.987	499.489	-3.827619978401229	end_round	0.987	columbia_card_task_fmri	13.0	0.8	71.0	-75.0	0.2	12.0	3.0	2.0	3.1388714677761698	0.987	2.0	stim	poldrack-single-stim	s642	False	1
500.246	1.5	499.495	n/a	-1.0	2.25	columbia_card_task_fmri	n/a	n/a	-1.0	n/a	n/a	n/a	n/a	n/a	n/a	n/a	n/a	ITI	poldrack-single-stim	s642	False	0
501.751	0.782	502.533	0.7723800215987728	draw_card	0.782	columbia_card_task_fmri	14.0	0.8333333333333334	89.0	-70.0	0.1666666666666666	12.0	1.0	2.0	-0.7551229163928355	0.782	n/a	stim	poldrack-single-stim	s642	False	1
502.538	0.867	503.405	-0.5003472511285041	draw_card	0.867	columbia_card_task_fmri	14.0	0.8181818181818181	89.0	-70.0	0.1818181818181818	12.0	2.0	2.0	0.3379510372967118	0.867	n/a	stim	poldrack-single-stim	s642	False	1
503.41	0.662	504.072	-2.027619978401228	draw_card	0.662	columbia_card_task_fmri	14.0	0.8	89.0	-70.0	0.2	12.0	3.0	2.0	1.5392748397624842	0.662	3.0	stim	poldrack-single-stim	s642	False	0
504.827	1.5	504.076	n/a	-1.0	2.386	columbia_card_task_fmri	n/a	n/a	-1.0	n/a	n/a	n/a	n/a	n/a	n/a	n/a	n/a	ITI	poldrack-single-stim	s642	False	0
506.469	1.05	507.519	0.7723800215987728	draw_card	1.05	columbia_card_task_fmri	16.0	0.8333333333333334	89.0	-80.0	0.1666666666666666	12.0	1.0	2.0	3.7158224696413527	1.05	n/a	stim	poldrack-single-stim	s642	False	1
507.524	0.805	508.329	-0.6821654329466857	end_round	0.805	columbia_card_task_fmri	16.0	0.8181818181818181	71.0	-80.0	0.1818181818181818	12.0	2.0	2.0	4.965135912615345	0.805	1.0	stim	poldrack-single-stim	s642	False	1
509.085	1.5	508.334	n/a	-1.0	2.386	columbia_card_task_fmri	n/a	n/a	-1.0	n/a	n/a	n/a	n/a	n/a	n/a	n/a	n/a	ITI	poldrack-single-stim	s642	False	0
510.727	1.715	512.442	0.5723800215987718	draw_card	1.715	columbia_card_task_fmri	16.0	0.8	89.0	-65.0	0.2	15.0	1.0	3.0	0.3396035025229906	1.715	n/a	stim	poldrack-single-stim	s642	False	1
512.447	0.425	512.872	-0.5847628355440848	draw_card	0.425	columbia_card_task_fmri	16.0	0.7857142857142857	89.0	-65.0	0.2142857142857142	15.0	2.0	3.0	1.1757700892785508	0.425	n/a	stim	poldrack-single-stim	s642	False	1
512.877	1.365	514.242	-1.9199276707089223	end_round	1.365	columbia_card_task_fmri	16.0	0.7692307692307692	71.0	-65.0	0.2307692307692307	15.0	3.0	3.0	2.0664663022805527	1.365	2.0	stim	poldrack-single-stim	s642	False	1
514.998	1.5	514.247	n/a	-1.0	2.726	columbia_card_task_fmri	n/a	n/a	-1.0	n/a	n/a	n/a	n/a	n/a	n/a	n/a	n/a	ITI	poldrack-single-stim	s642	False	0
516.981	0.933	517.914	-1.102619978401229	draw_card	0.933	columbia_card_task_fmri	15.0	0.8125	89.0	-75.0	0.1875	16.0	1.0	3.0	3.067002543747101	0.933	1.0	stim	poldrack-single-stim	s642	False	0
518.67	1.5	517.919	n/a	-1.0	2.454	columbia_card_task_fmri	n/a	n/a	-1.0	n/a	n/a	n/a	n/a	n/a	n/a	n/a	n/a	ITI	poldrack-single-stim	s642	False	0
520.38	1.981	522.361	-0.5401199784012289	draw_card	1.981	columbia_card_task_fmri	14.0	0.6875	89.0	-35.0	0.3125	16.0	1.0	5.0	-9.34436413613897	1.981	n/a	stim	poldrack-single-stim	s642	False	1
522.365	0.625	522.99	-1.560953311734561	draw_card	0.625	columbia_card_task_fmri	14.0	0.6666666666666667	89.0	-35.0	0.3333333333333333	16.0	2.0	5.0	-8.95787017096487	0.625	n/a	stim	poldrack-single-stim	s642	False	1
522.995	1.292	524.287	-2.727619978401229	draw_card	1.292	columbia_card_task_fmri	14.0	0.6428571428571428	89.0	-35.0	0.3571428571428571	16.0	3.0	5.0	-8.578186697002465	1.292	3.0	stim	poldrack-single-stim	s642	False	0
525.044	1.5	524.293	n/a	-1.0	2.318	columbia_card_task_fmri	n/a	n/a	-1.0	n/a	n/a	n/a	n/a	n/a	n/a	n/a	n/a	ITI	poldrack-single-stim	s642	False	0
526.618	0.755	527.373	4.639046688265438	draw_card	0.755	columbia_card_task_fmri	16.0	0.8666666666666667	89.0	-75.0	0.1333333333333333	15.0	1.0	2.0	-1.1259086928760595	0.755	n/a	stim	poldrack-single-stim	s642	False	1
527.378	0.46	527.838	3.7723800215987726	end_round	0.46	columbia_card_task_fmri	16.0	0.8571428571428572	71.0	-75.0	0.1428571428571428	15.0	2.0	2.0	-0.2168689809532367	0.46	1.0	stim	poldrack-single-stim	s642	False	1
528.594	1.5	527.843	n/a	-1.0	2.318	columbia_card_task_fmri	n/a	n/a	-1.0	n/a	n/a	n/a	n/a	n/a	n/a	n/a	n/a	ITI	poldrack-single-stim	s642	False	0
530.168	0.731	530.899	5.305713354932104	draw_card	0.731	columbia_card_task_fmri	16.0	0.8666666666666667	89.0	-70.0	0.1333333333333333	15.0	1.0	2.0	-2.8250215238752467	0.731	n/a	stim	poldrack-single-stim	s642	False	1
530.904	1.09	531.994	4.486665735884486	draw_card	1.09	columbia_card_task_fmri	16.0	0.8571428571428572	89.0	-70.0	0.1428571428571428	15.0	2.0	2.0	-1.9659601571454743	1.09	n/a	stim	poldrack-single-stim	s642	False	1
531.999	0.798	532.797	3.541610790829539	draw_card	0.798	columbia_card_task_fmri	16.0	0.8461538461538461	89.0	-70.0	0.1538461538461538	15.0	3.0	2.0	-1.0310856142730458	0.798	n/a	stim	poldrack-single-stim	s642	False	1
532.803	1.372	534.175	2.4390466882654387	end_round	1.372	columbia_card_task_fmri	16.0	0.8333333333333334	71.0	-70.0	0.1666666666666666	15.0	4.0	2.0	-0.0099884153200733	1.372	3.0	stim	poldrack-single-stim	s642	False	1
534.932	1.5	534.181	n/a	-1.0	2.59	columbia_card_task_fmri	n/a	n/a	-1.0	n/a	n/a	n/a	n/a	n/a	n/a	n/a	n/a	ITI	poldrack-single-stim	s642	False	0
536.778	2.816	539.594	2.647380021598771	draw_card	2.816	columbia_card_task_fmri	8.0	0.9375	89.0	-90.0	0.0625	16.0	1.0	1.0	-8.335007666705351	2.816	n/a	stim	poldrack-single-stim	s642	False	1
539.599	0.637	540.236	2.2390466882654376	draw_card	0.637	columbia_card_task_fmri	8.0	0.9333333333333332	89.0	-90.0	0.0666666666666666	16.0	2.0	1.0	-7.611907585629858	0.637	n/a	stim	poldrack-single-stim	s642	False	1
540.242	0.557	540.799	1.772380021598772	draw_card	0.557	columbia_card_task_fmri	8.0	0.9285714285714286	89.0	-90.0	0.0714285714285714	16.0	3.0	1.0	-6.818926868659816	0.557	n/a	stim	poldrack-single-stim	s642	False	1
540.805	0.648	541.453	1.2339184831372327	end_round	0.648	columbia_card_task_fmri	8.0	0.9230769230769232	71.0	-90.0	0.0769230769230769	16.0	4.0	1.0	-5.944184801196265	0.648	3.0	stim	poldrack-single-stim	s642	False	1
542.209	1.5	541.458	n/a	-1.0	2.726	columbia_card_task_fmri	n/a	n/a	-1.0	n/a	n/a	n/a	n/a	n/a	n/a	n/a	n/a	ITI	poldrack-single-stim	s642	False	0
544.191	2.524	546.715	4.209880021598771	draw_card	2.524	columbia_card_task_fmri	10.0	0.9375	89.0	-95.0	0.0625	16.0	1.0	1.0	-6.6414151101522165	2.524	n/a	stim	poldrack-single-stim	s642	False	1
546.722	1.414	548.136	3.772380021598772	draw_card	1.414	columbia_card_task_fmri	10.0	0.9333333333333332	89.0	-95.0	0.0666666666666666	16.0	2.0	1.0	-5.866613707021621	1.414	n/a	stim	poldrack-single-stim	s642	False	1
548.142	0.642	548.784	3.272380021598772	draw_card	0.642	columbia_card_task_fmri	10.0	0.9285714285714286	89.0	-95.0	0.0714285714285714	16.0	3.0	1.0	-5.016938613946028	0.642	n/a	stim	poldrack-single-stim	s642	False	1
548.789	0.725	549.514	2.695456944675694	draw_card	0.725	columbia_card_task_fmri	10.0	0.9230769230769232	89.0	-95.0	0.0769230769230769	16.0	4.0	1.0	-4.079660345096361	0.725	n/a	stim	poldrack-single-stim	s642	False	1
549.519	1.178	550.697	2.022380021598771	draw_card	1.178	columbia_card_task_fmri	10.0	0.9166666666666666	89.0	-95.0	0.0833333333333333	16.0	5.0	1.0	-3.038857983784673	1.178	n/a	stim	poldrack-single-stim	s642	False	1
550.702	1.312	552.014	1.2269254761442243	end_round	1.312	columbia_card_task_fmri	10.0	0.9090909090909092	71.0	-95.0	0.0909090909090909	16.0	6.0	1.0	-1.8743436964023523	1.312	5.0	stim	poldrack-single-stim	s642	False	1
552.772	1.5	552.021	n/a	-1.0	2.522	columbia_card_task_fmri	n/a	n/a	-1.0	n/a	n/a	n/a	n/a	n/a	n/a	n/a	n/a	ITI	poldrack-single-stim	s642	False	0
554.549	1.919	556.468	5.147380021598771	draw_card	1.919	columbia_card_task_fmri	15.0	0.875	89.0	-70.0	0.125	16.0	1.0	2.0	-3.9478849065835	1.919	n/a	stim	poldrack-single-stim	s642	False	1
556.473	0.384	556.857	4.439046688265437	draw_card	0.384	columbia_card_task_fmri	15.0	0.8666666666666667	89.0	-70.0	0.1333333333333333	16.0	2.0	2.0	-3.164836183517149	0.384	2.0	stim	poldrack-single-stim	s642	False	0
557.615	1.5	556.864	n/a	-1.0	3.134	columbia_card_task_fmri	n/a	n/a	-1.0	n/a	n/a	n/a	n/a	n/a	n/a	n/a	n/a	ITI	poldrack-single-stim	s642	False	0
560.006	1.369	561.375	4.147380021598771	draw_card	1.369	columbia_card_task_fmri	16.0	0.875	89.0	-85.0	0.125	16.0	1.0	2.0	1.3419375820841637	1.369	n/a	stim	poldrack-single-stim	s642	False	1
561.379	0.714	562.093	3.305713354932104	draw_card	0.714	columbia_card_task_fmri	16.0	0.8666666666666667	89.0	-85.0	0.1333333333333333	16.0	2.0	2.0	2.2724833376794398	0.714	2.0	stim	poldrack-single-stim	s642	False	0
562.85	1.5	562.099	n/a	-1.0	2.386	columbia_card_task_fmri	n/a	n/a	-1.0	n/a	n/a	n/a	n/a	n/a	n/a	n/a	n/a	ITI	poldrack-single-stim	s642	False	0
