onset	duration	SS_delay	block_duration	correct	correct_response	experiment_exp_id	key_press	passed_check	response_time	stop_response	stopped	trial_id	trial_type	worker_id	junk
3.019	0.85	0.35	2.25	1.0	71.0	motor_selective_stop_signal	71.0	True	0.634	89.0	False	stim	noncrit_signal	s642	False
5.275	0.85	0.35	2.25	0.0	71.0	motor_selective_stop_signal	89.0	True	0.666	89.0	False	stim	noncrit_nosignal	s642	False
7.532	0.85	0.35	2.85	1.0	89.0	motor_selective_stop_signal	-1.0	True	n/a	89.0	True	stim	crit_stop_success	s642	False
10.389	0.85	0.4	2.35	1.0	71.0	motor_selective_stop_signal	71.0	True	0.497	89.0	False	stim	noncrit_nosignal	s642	False
12.741	0.85	0.4	2.25	1.0	71.0	motor_selective_stop_signal	71.0	True	0.548	89.0	False	stim	noncrit_nosignal	s642	False
14.997	0.85	0.4	2.25	1.0	89.0	motor_selective_stop_signal	89.0	True	0.39	89.0	False	stim	crit_stop_failure	s642	False
17.251	0.85	0.35	2.25	1.0	89.0	motor_selective_stop_signal	89.0	True	0.48	89.0	False	stim	crit_go	s642	False
19.507	0.85	0.35	2.35	1.0	71.0	motor_selective_stop_signal	71.0	True	0.495	89.0	False	stim	noncrit_nosignal	s642	False
21.86	0.85	0.35	2.65	1.0	89.0	motor_selective_stop_signal	89.0	True	0.584	89.0	False	stim	crit_go	s642	False
24.516	0.85	0.35	2.75	1.0	89.0	motor_selective_stop_signal	89.0	True	0.549	89.0	False	stim	crit_stop_failure	s642	False
27.272	0.85	0.3	2.25	1.0	89.0	motor_selective_stop_signal	89.0	True	0.502	89.0	False	stim	crit_go	s642	False
29.53	0.85	0.3	2.75	1.0	89.0	motor_selective_stop_signal	89.0	True	0.464	89.0	False	stim	crit_stop_failure	s642	False
32.284	0.85	0.25	2.25	1.0	71.0	motor_selective_stop_signal	71.0	True	0.623	89.0	False	stim	noncrit_signal	s642	False
34.54	0.85	0.25	2.35	1.0	89.0	motor_selective_stop_signal	89.0	True	0.8	89.0	False	stim	crit_go	s642	False
36.897	0.85	0.25	2.35	1.0	71.0	motor_selective_stop_signal	71.0	True	0.601	89.0	False	stim	noncrit_nosignal	s642	False
39.251	0.85	0.25	2.55	1.0	71.0	motor_selective_stop_signal	71.0	True	0.465	89.0	False	stim	noncrit_nosignal	s642	False
41.806	0.85	0.25	2.25	1.0	89.0	motor_selective_stop_signal	89.0	True	0.482	89.0	False	stim	crit_go	s642	False
44.061	0.85	0.25	2.25	1.0	71.0	motor_selective_stop_signal	71.0	True	0.618	89.0	False	stim	noncrit_signal	s642	False
46.317	0.85	0.25	2.25	1.0	71.0	motor_selective_stop_signal	71.0	True	0.49	89.0	False	stim	noncrit_nosignal	s642	False
48.574	0.85	0.25	2.35	1.0	89.0	motor_selective_stop_signal	89.0	True	0.693	89.0	False	stim	crit_go	s642	False
50.928	0.85	0.25	2.65	1.0	89.0	motor_selective_stop_signal	-1.0	True	n/a	89.0	True	stim	crit_stop_success	s642	False
53.584	0.85	0.3	2.35	1.0	89.0	motor_selective_stop_signal	89.0	True	0.624	89.0	False	stim	crit_go	s642	False
55.94	0.85	0.3	2.25	1.0	71.0	motor_selective_stop_signal	71.0	True	0.45	89.0	False	stim	noncrit_signal	s642	False
58.193	0.85	0.3	2.35	1.0	71.0	motor_selective_stop_signal	71.0	True	0.447	89.0	False	stim	noncrit_nosignal	s642	False
60.549	0.85	0.3	2.35	1.0	89.0	motor_selective_stop_signal	89.0	True	0.587	89.0	False	stim	crit_stop_failure	s642	False
62.905	0.85	0.25	2.85	1.0	89.0	motor_selective_stop_signal	89.0	True	0.636	89.0	False	stim	crit_go	s642	False
65.76	0.85	0.25	2.45	1.0	71.0	motor_selective_stop_signal	71.0	True	0.697	89.0	False	stim	noncrit_nosignal	s642	False
68.217	0.85	0.25	2.35	1.0	71.0	motor_selective_stop_signal	71.0	True	0.513	89.0	False	stim	noncrit_nosignal	s642	False
70.573	0.85	0.25	2.65	1.0	71.0	motor_selective_stop_signal	71.0	True	0.473	89.0	False	stim	noncrit_nosignal	s642	False
73.227	0.85	0.25	2.25	1.0	89.0	motor_selective_stop_signal	89.0	True	0.592	89.0	False	stim	crit_go	s642	False
75.484	0.85	0.25	2.25	1.0	71.0	motor_selective_stop_signal	71.0	True	0.837	89.0	False	stim	noncrit_signal	s642	False
77.737	0.85	0.25	2.25	1.0	71.0	motor_selective_stop_signal	71.0	True	0.448	89.0	False	stim	noncrit_nosignal	s642	False
79.992	0.85	0.25	2.45	1.0	71.0	motor_selective_stop_signal	71.0	True	0.579	89.0	False	stim	noncrit_nosignal	s642	False
82.449	0.85	0.25	2.35	1.0	89.0	motor_selective_stop_signal	89.0	True	0.616	89.0	False	stim	crit_go	s642	False
84.801	0.85	0.25	2.25	1.0	89.0	motor_selective_stop_signal	-1.0	True	n/a	89.0	True	stim	crit_stop_success	s642	False
87.057	0.85	0.3	2.35	1.0	89.0	motor_selective_stop_signal	-1.0	True	n/a	89.0	True	stim	crit_stop_success	s642	False
89.413	0.85	0.35	2.45	1.0	71.0	motor_selective_stop_signal	71.0	True	0.415	89.0	False	stim	noncrit_signal	s642	False
91.868	0.85	0.35	2.35	1.0	89.0	motor_selective_stop_signal	89.0	True	0.594	89.0	False	stim	crit_go	s642	False
94.225	0.85	0.35	2.25	1.0	89.0	motor_selective_stop_signal	89.0	True	0.563	89.0	False	stim	crit_go	s642	False
96.479	0.85	0.35	2.25	1.0	71.0	motor_selective_stop_signal	71.0	True	0.448	89.0	False	stim	noncrit_nosignal	s642	False
98.735	0.85	0.35	2.35	1.0	71.0	motor_selective_stop_signal	71.0	True	0.543	89.0	False	stim	noncrit_signal	s642	False
101.091	0.85	0.35	2.35	1.0	89.0	motor_selective_stop_signal	89.0	True	0.516	89.0	False	stim	crit_stop_failure	s642	False
103.448	0.85	0.3	2.35	1.0	71.0	motor_selective_stop_signal	71.0	True	0.396	89.0	False	stim	noncrit_nosignal	s642	False
105.804	0.85	0.3	2.95	1.0	89.0	motor_selective_stop_signal	89.0	True	0.639	89.0	False	stim	crit_go	s642	False
108.76	0.85	0.3	2.25	1.0	89.0	motor_selective_stop_signal	89.0	True	0.765	89.0	False	stim	crit_go	s642	False
111.016	0.85	0.3	2.35	1.0	89.0	motor_selective_stop_signal	89.0	True	0.756	89.0	False	stim	crit_go	s642	False
113.369	0.85	0.3	2.25	1.0	71.0	motor_selective_stop_signal	71.0	True	0.418	89.0	False	stim	noncrit_nosignal	s642	False
115.625	0.85	0.3	2.45	1.0	71.0	motor_selective_stop_signal	71.0	True	0.426	89.0	False	stim	noncrit_signal	s642	False
118.081	0.85	0.3	2.35	1.0	71.0	motor_selective_stop_signal	71.0	True	0.471	89.0	False	stim	noncrit_signal	s642	False
120.435	0.85	0.3	2.55	1.0	71.0	motor_selective_stop_signal	71.0	True	0.503	89.0	False	stim	noncrit_signal	s642	False
133.51	0.85	0.3	2.55	1.0	71.0	motor_selective_stop_signal	71.0	True	0.565	89.0	False	stim	noncrit_nosignal	s642	False
136.064	0.85	0.3	2.25	0.0	89.0	motor_selective_stop_signal	71.0	True	0.368	89.0	False	stim	crit_go	s642	False
138.32	0.85	0.3	2.25	1.0	89.0	motor_selective_stop_signal	89.0	True	0.494	89.0	False	stim	crit_go	s642	False
140.573	0.85	0.3	2.75	1.0	89.0	motor_selective_stop_signal	89.0	True	0.436	89.0	False	stim	crit_stop_failure	s642	False
143.33	0.85	0.25	2.35	1.0	89.0	motor_selective_stop_signal	-1.0	True	n/a	89.0	True	stim	crit_stop_success	s642	False
145.686	0.85	0.3	2.25	1.0	89.0	motor_selective_stop_signal	-1.0	True	n/a	89.0	True	stim	crit_stop_success	s642	False
147.942	0.85	0.35	2.45	1.0	89.0	motor_selective_stop_signal	89.0	True	0.628	89.0	False	stim	crit_go	s642	False
150.395	0.85	0.35	2.25	0.0	71.0	motor_selective_stop_signal	89.0	True	0.381	89.0	False	stim	noncrit_nosignal	s642	False
152.651	0.85	0.35	2.35	1.0	89.0	motor_selective_stop_signal	89.0	True	0.437	89.0	False	stim	crit_go	s642	False
155.007	0.85	0.35	2.25	1.0	89.0	motor_selective_stop_signal	89.0	True	0.629	89.0	False	stim	crit_go	s642	False
157.261	0.85	0.35	2.25	0.0	89.0	motor_selective_stop_signal	71.0	True	0.928	89.0	False	stim	crit_stop_failure	s642	False
159.517	0.85	0.3	2.25	0.0	89.0	motor_selective_stop_signal	71.0	True	0.681	89.0	False	stim	crit_stop_failure	s642	False
161.771	0.85	0.25	2.25	1.0	71.0	motor_selective_stop_signal	71.0	True	0.577	89.0	False	stim	noncrit_nosignal	s642	False
164.027	0.85	0.25	2.25	1.0	71.0	motor_selective_stop_signal	71.0	True	0.667	89.0	False	stim	noncrit_nosignal	s642	False
166.284	0.85	0.25	2.35	0.0	71.0	motor_selective_stop_signal	-1.0	True	n/a	89.0	True	stim	noncrit_signal	s642	False
168.64	0.85	0.25	2.55	1.0	89.0	motor_selective_stop_signal	-1.0	True	n/a	89.0	True	stim	crit_stop_success	s642	False
171.194	0.85	0.3	2.95	1.0	89.0	motor_selective_stop_signal	89.0	True	0.72	89.0	False	stim	crit_go	s642	False
174.15	0.85	0.3	2.25	0.0	89.0	motor_selective_stop_signal	71.0	True	0.687	89.0	False	stim	crit_stop_failure	s642	False
176.406	0.85	0.25	2.35	1.0	71.0	motor_selective_stop_signal	71.0	True	0.532	89.0	False	stim	noncrit_nosignal	s642	False
178.762	0.85	0.25	2.55	1.0	89.0	motor_selective_stop_signal	89.0	True	0.619	89.0	False	stim	crit_go	s642	False
181.318	0.85	0.25	2.25	1.0	71.0	motor_selective_stop_signal	71.0	True	0.492	89.0	False	stim	noncrit_signal	s642	False
183.575	0.85	0.25	2.35	1.0	71.0	motor_selective_stop_signal	71.0	True	0.691	89.0	False	stim	noncrit_signal	s642	False
185.931	0.85	0.25	2.55	1.0	71.0	motor_selective_stop_signal	71.0	True	0.62	89.0	False	stim	noncrit_signal	s642	False
188.486	0.85	0.25	2.45	1.0	71.0	motor_selective_stop_signal	71.0	True	0.547	89.0	False	stim	noncrit_signal	s642	False
190.942	0.85	0.25	2.35	1.0	71.0	motor_selective_stop_signal	71.0	True	0.551	89.0	False	stim	noncrit_nosignal	s642	False
193.299	0.85	0.25	2.65	1.0	89.0	motor_selective_stop_signal	89.0	True	0.515	89.0	False	stim	crit_go	s642	False
195.955	0.85	0.25	2.55	1.0	71.0	motor_selective_stop_signal	71.0	True	0.594	89.0	False	stim	noncrit_nosignal	s642	False
198.511	0.85	0.25	2.75	1.0	89.0	motor_selective_stop_signal	89.0	True	0.427	89.0	False	stim	crit_stop_failure	s642	False
201.266	0.85	0.2	2.55	1.0	89.0	motor_selective_stop_signal	-1.0	True	n/a	89.0	True	stim	crit_stop_success	s642	False
203.821	0.85	0.25	2.45	1.0	71.0	motor_selective_stop_signal	71.0	True	0.495	89.0	False	stim	noncrit_signal	s642	False
206.277	0.85	0.25	2.75	1.0	89.0	motor_selective_stop_signal	89.0	True	0.6	89.0	False	stim	crit_go	s642	False
209.032	0.85	0.25	2.55	1.0	71.0	motor_selective_stop_signal	71.0	True	0.408	89.0	False	stim	noncrit_nosignal	s642	False
211.588	0.85	0.25	2.35	1.0	89.0	motor_selective_stop_signal	-1.0	True	n/a	89.0	True	stim	crit_stop_success	s642	False
213.944	0.85	0.3	2.25	1.0	71.0	motor_selective_stop_signal	71.0	True	0.455	89.0	False	stim	noncrit_nosignal	s642	False
216.199	0.85	0.3	2.65	1.0	89.0	motor_selective_stop_signal	89.0	True	0.952	89.0	False	stim	crit_go	s642	False
218.856	0.85	0.3	2.25	1.0	89.0	motor_selective_stop_signal	-1.0	True	n/a	89.0	True	stim	crit_stop_success	s642	False
221.112	0.85	0.35	2.35	1.0	89.0	motor_selective_stop_signal	89.0	True	0.641	89.0	False	stim	crit_go	s642	False
223.465	0.85	0.35	2.25	1.0	89.0	motor_selective_stop_signal	89.0	True	0.564	89.0	False	stim	crit_go	s642	False
225.722	0.85	0.35	2.35	1.0	71.0	motor_selective_stop_signal	71.0	True	0.608	89.0	False	stim	noncrit_nosignal	s642	False
228.078	0.85	0.35	2.35	1.0	89.0	motor_selective_stop_signal	89.0	True	0.469	89.0	False	stim	crit_go	s642	False
230.433	0.85	0.35	2.25	1.0	89.0	motor_selective_stop_signal	89.0	True	0.54	89.0	False	stim	crit_go	s642	False
232.69	0.85	0.35	2.85	1.0	71.0	motor_selective_stop_signal	71.0	True	0.574	89.0	False	stim	noncrit_signal	s642	False
235.546	0.85	0.35	2.35	1.0	89.0	motor_selective_stop_signal	89.0	True	0.416	89.0	False	stim	crit_go	s642	False
237.901	0.85	0.35	2.25	1.0	71.0	motor_selective_stop_signal	71.0	True	0.42	89.0	False	stim	noncrit_nosignal	s642	False
240.157	0.85	0.35	2.35	1.0	89.0	motor_selective_stop_signal	89.0	True	0.458	89.0	False	stim	crit_go	s642	False
242.512	0.85	0.35	2.45	1.0	89.0	motor_selective_stop_signal	89.0	True	0.457	89.0	False	stim	crit_go	s642	False
244.968	0.85	0.35	2.25	1.0	89.0	motor_selective_stop_signal	89.0	True	0.334	89.0	False	stim	crit_stop_failure	s642	False
247.222	0.85	0.3	2.25	1.0	71.0	motor_selective_stop_signal	71.0	True	0.568	89.0	False	stim	noncrit_signal	s642	False
249.478	0.85	0.3	2.75	1.0	71.0	motor_selective_stop_signal	71.0	True	0.336	89.0	False	stim	noncrit_nosignal	s642	False
252.234	0.85	0.3	2.35	1.0	71.0	motor_selective_stop_signal	71.0	True	0.572	89.0	False	stim	noncrit_signal	s642	False
265.108	0.85	0.3	2.75	1.0	89.0	motor_selective_stop_signal	89.0	True	0.464	89.0	False	stim	crit_go	s642	False
267.864	0.85	0.3	2.45	0.0	89.0	motor_selective_stop_signal	71.0	True	0.539	89.0	False	stim	crit_go	s642	False
270.321	0.85	0.3	2.25	1.0	89.0	motor_selective_stop_signal	89.0	True	0.793	89.0	False	stim	crit_go	s642	False
272.578	0.85	0.3	2.35	1.0	89.0	motor_selective_stop_signal	89.0	True	0.507	89.0	False	stim	crit_stop_failure	s642	False
274.932	0.85	0.25	2.65	1.0	89.0	motor_selective_stop_signal	89.0	True	0.425	89.0	False	stim	crit_go	s642	False
277.587	0.85	0.25	2.45	1.0	89.0	motor_selective_stop_signal	89.0	True	0.339	89.0	False	stim	crit_stop_failure	s642	False
280.043	0.85	0.2	2.25	1.0	89.0	motor_selective_stop_signal	89.0	True	0.585	89.0	False	stim	crit_go	s642	False
282.3	0.85	0.2	2.35	1.0	71.0	motor_selective_stop_signal	71.0	True	0.385	89.0	False	stim	noncrit_signal	s642	False
284.656	0.85	0.2	2.95	1.0	71.0	motor_selective_stop_signal	71.0	True	0.644	89.0	False	stim	noncrit_signal	s642	False
287.612	0.85	0.2	2.25	1.0	71.0	motor_selective_stop_signal	71.0	True	0.46	89.0	False	stim	noncrit_nosignal	s642	False
289.867	0.85	0.2	2.95	1.0	71.0	motor_selective_stop_signal	71.0	True	0.47	89.0	False	stim	noncrit_nosignal	s642	False
292.823	0.85	0.2	2.45	1.0	71.0	motor_selective_stop_signal	71.0	True	0.67	89.0	False	stim	noncrit_signal	s642	False
295.279	0.85	0.2	2.25	0.0	89.0	motor_selective_stop_signal	71.0	True	0.735	89.0	False	stim	crit_stop_failure	s642	False
297.531	0.85	0.15	2.35	1.0	71.0	motor_selective_stop_signal	71.0	True	0.641	89.0	False	stim	noncrit_nosignal	s642	False
299.887	0.85	0.15	2.45	1.0	89.0	motor_selective_stop_signal	89.0	True	0.541	89.0	False	stim	crit_go	s642	False
302.343	0.85	0.15	2.25	1.0	89.0	motor_selective_stop_signal	-1.0	True	n/a	89.0	True	stim	crit_stop_success	s642	False
304.599	0.85	0.2	2.45	1.0	71.0	motor_selective_stop_signal	71.0	True	0.465	89.0	False	stim	noncrit_signal	s642	False
307.055	0.85	0.2	2.75	1.0	71.0	motor_selective_stop_signal	71.0	True	0.417	89.0	False	stim	noncrit_nosignal	s642	False
309.81	0.85	0.2	2.25	1.0	71.0	motor_selective_stop_signal	71.0	True	0.453	89.0	False	stim	noncrit_signal	s642	False
312.066	0.85	0.2	2.35	1.0	71.0	motor_selective_stop_signal	71.0	True	0.398	89.0	False	stim	noncrit_nosignal	s642	False
314.421	0.85	0.2	2.45	1.0	71.0	motor_selective_stop_signal	71.0	True	0.365	89.0	False	stim	noncrit_signal	s642	False
316.878	0.85	0.2	2.35	1.0	89.0	motor_selective_stop_signal	89.0	True	0.574	89.0	False	stim	crit_go	s642	False
319.234	0.85	0.2	2.25	1.0	71.0	motor_selective_stop_signal	71.0	True	0.539	89.0	False	stim	noncrit_signal	s642	False
321.49	0.85	0.2	2.55	1.0	71.0	motor_selective_stop_signal	71.0	True	0.425	89.0	False	stim	noncrit_nosignal	s642	False
324.045	0.85	0.2	2.45	1.0	71.0	motor_selective_stop_signal	71.0	True	0.446	89.0	False	stim	noncrit_nosignal	s642	False
326.496	0.85	0.2	2.65	1.0	89.0	motor_selective_stop_signal	89.0	True	0.456	89.0	False	stim	crit_go	s642	False
329.153	0.85	0.2	2.25	1.0	89.0	motor_selective_stop_signal	89.0	True	0.426	89.0	False	stim	crit_stop_failure	s642	False
331.408	0.85	0.15	2.65	1.0	71.0	motor_selective_stop_signal	71.0	True	0.483	89.0	False	stim	noncrit_signal	s642	False
334.064	0.85	0.15	2.35	1.0	71.0	motor_selective_stop_signal	71.0	True	0.38	89.0	False	stim	noncrit_nosignal	s642	False
336.416	0.85	0.15	2.25	1.0	89.0	motor_selective_stop_signal	89.0	True	0.482	89.0	False	stim	crit_go	s642	False
338.672	0.85	0.15	2.25	1.0	71.0	motor_selective_stop_signal	71.0	True	0.401	89.0	False	stim	noncrit_nosignal	s642	False
340.926	0.85	0.15	2.25	1.0	89.0	motor_selective_stop_signal	89.0	True	0.563	89.0	False	stim	crit_go	s642	False
343.183	0.85	0.15	2.35	1.0	71.0	motor_selective_stop_signal	71.0	True	0.47	89.0	False	stim	noncrit_nosignal	s642	False
345.537	0.85	0.15	2.55	1.0	71.0	motor_selective_stop_signal	71.0	True	0.427	89.0	False	stim	noncrit_signal	s642	False
348.093	0.85	0.15	2.35	1.0	89.0	motor_selective_stop_signal	89.0	True	0.53	89.0	False	stim	crit_go	s642	False
350.449	0.85	0.15	2.45	0.0	89.0	motor_selective_stop_signal	71.0	True	0.578	89.0	False	stim	crit_stop_failure	s642	False
352.904	0.85	0.1	2.45	1.0	71.0	motor_selective_stop_signal	71.0	True	0.471	89.0	False	stim	noncrit_nosignal	s642	False
355.357	0.85	0.1	2.35	1.0	89.0	motor_selective_stop_signal	-1.0	True	n/a	89.0	True	stim	crit_stop_success	s642	False
357.712	0.85	0.15	2.25	1.0	71.0	motor_selective_stop_signal	71.0	True	0.398	89.0	False	stim	noncrit_signal	s642	False
359.966	0.85	0.15	2.55	1.0	71.0	motor_selective_stop_signal	71.0	True	0.496	89.0	False	stim	noncrit_nosignal	s642	False
362.521	0.85	0.15	2.55	1.0	89.0	motor_selective_stop_signal	89.0	True	0.533	89.0	False	stim	crit_go	s642	False
365.077	0.85	0.15	2.25	1.0	71.0	motor_selective_stop_signal	71.0	True	0.673	89.0	False	stim	noncrit_signal	s642	False
367.33	0.85	0.15	2.25	1.0	71.0	motor_selective_stop_signal	71.0	True	0.406	89.0	False	stim	noncrit_nosignal	s642	False
369.585	0.85	0.15	2.45	1.0	89.0	motor_selective_stop_signal	-1.0	True	n/a	89.0	True	stim	crit_stop_success	s642	False
372.042	0.85	0.2	2.35	1.0	71.0	motor_selective_stop_signal	71.0	True	0.385	89.0	False	stim	noncrit_nosignal	s642	False
374.397	0.85	0.2	2.25	1.0	71.0	motor_selective_stop_signal	71.0	True	0.519	89.0	False	stim	noncrit_nosignal	s642	False
376.651	0.85	0.2	3.15	1.0	89.0	motor_selective_stop_signal	89.0	True	0.53	89.0	False	stim	crit_go	s642	False
379.807	0.85	0.2	2.65	1.0	71.0	motor_selective_stop_signal	71.0	True	0.663	89.0	False	stim	noncrit_nosignal	s642	False
382.462	0.85	0.2	2.25	1.0	71.0	motor_selective_stop_signal	71.0	True	0.669	89.0	False	stim	noncrit_signal	s642	False
384.717	0.85	0.2	2.45	1.0	89.0	motor_selective_stop_signal	89.0	True	0.608	89.0	False	stim	crit_stop_failure	s642	False
397.688	0.85	0.15	2.85	1.0	71.0	motor_selective_stop_signal	71.0	True	0.994	89.0	False	stim	noncrit_signal	s642	False
400.543	0.85	0.15	2.45	1.0	71.0	motor_selective_stop_signal	71.0	True	0.376	89.0	False	stim	noncrit_nosignal	s642	False
402.997	0.85	0.15	2.25	1.0	89.0	motor_selective_stop_signal	89.0	True	0.554	89.0	False	stim	crit_go	s642	False
405.253	0.85	0.15	2.25	1.0	89.0	motor_selective_stop_signal	89.0	True	0.433	89.0	False	stim	crit_go	s642	False
407.507	0.85	0.15	2.55	1.0	71.0	motor_selective_stop_signal	71.0	True	0.413	89.0	False	stim	noncrit_signal	s642	False
410.061	0.85	0.15	2.25	0.0	89.0	motor_selective_stop_signal	71.0	True	0.496	89.0	False	stim	crit_stop_failure	s642	False
412.317	0.85	0.1	2.35	1.0	89.0	motor_selective_stop_signal	89.0	True	0.665	89.0	False	stim	crit_go	s642	False
414.674	0.85	0.1	2.35	1.0	89.0	motor_selective_stop_signal	-1.0	True	n/a	89.0	True	stim	crit_stop_success	s642	False
417.03	0.85	0.15	2.25	1.0	89.0	motor_selective_stop_signal	89.0	True	0.554	89.0	False	stim	crit_go	s642	False
419.284	0.85	0.15	2.35	1.0	71.0	motor_selective_stop_signal	71.0	True	0.427	89.0	False	stim	noncrit_signal	s642	False
421.64	0.85	0.15	2.25	1.0	71.0	motor_selective_stop_signal	71.0	True	0.389	89.0	False	stim	noncrit_nosignal	s642	False
423.896	0.85	0.15	2.45	1.0	71.0	motor_selective_stop_signal	71.0	True	0.379	89.0	False	stim	noncrit_nosignal	s642	False
426.351	0.85	0.15	2.25	1.0	71.0	motor_selective_stop_signal	71.0	True	0.397	89.0	False	stim	noncrit_nosignal	s642	False
428.604	0.85	0.15	2.35	1.0	71.0	motor_selective_stop_signal	71.0	True	0.434	89.0	False	stim	noncrit_nosignal	s642	False
430.96	0.85	0.15	2.45	1.0	71.0	motor_selective_stop_signal	71.0	True	0.43	89.0	False	stim	noncrit_signal	s642	False
433.416	0.85	0.15	2.25	0.0	89.0	motor_selective_stop_signal	71.0	True	0.538	89.0	False	stim	crit_stop_failure	s642	False
435.67	0.85	0.1	2.25	1.0	71.0	motor_selective_stop_signal	71.0	True	0.489	89.0	False	stim	noncrit_nosignal	s642	False
437.926	0.85	0.1	2.85	1.0	89.0	motor_selective_stop_signal	89.0	True	0.627	89.0	False	stim	crit_go	s642	False
440.782	0.85	0.1	2.25	1.0	89.0	motor_selective_stop_signal	89.0	True	0.483	89.0	False	stim	crit_go	s642	False
443.037	0.85	0.1	3.45	1.0	89.0	motor_selective_stop_signal	89.0	True	0.429	89.0	False	stim	crit_go	s642	False
446.491	0.85	0.1	2.35	1.0	71.0	motor_selective_stop_signal	71.0	True	0.458	89.0	False	stim	noncrit_signal	s642	False
448.847	0.85	0.1	2.35	1.0	71.0	motor_selective_stop_signal	71.0	True	0.611	89.0	False	stim	noncrit_signal	s642	False
451.2	0.85	0.1	2.35	1.0	89.0	motor_selective_stop_signal	89.0	True	0.392	89.0	False	stim	crit_go	s642	False
453.556	0.85	0.1	2.45	0.0	89.0	motor_selective_stop_signal	71.0	True	0.706	89.0	False	stim	crit_stop_failure	s642	False
456.011	0.85	0.05	2.55	1.0	71.0	motor_selective_stop_signal	71.0	True	0.482	89.0	False	stim	noncrit_signal	s642	False
458.567	0.85	0.05	2.35	0.0	71.0	motor_selective_stop_signal	89.0	True	0.372	89.0	False	stim	noncrit_nosignal	s642	False
460.923	0.85	0.05	2.25	1.0	89.0	motor_selective_stop_signal	-1.0	True	n/a	89.0	True	stim	crit_stop_success	s642	False
463.18	0.85	0.1	2.25	1.0	71.0	motor_selective_stop_signal	71.0	True	0.556	89.0	False	stim	noncrit_nosignal	s642	False
465.436	0.85	0.1	3.05	1.0	71.0	motor_selective_stop_signal	71.0	True	0.471	89.0	False	stim	noncrit_nosignal	s642	False
468.49	0.85	0.1	2.45	1.0	71.0	motor_selective_stop_signal	71.0	True	0.492	89.0	False	stim	noncrit_nosignal	s642	False
470.943	0.85	0.1	2.35	1.0	89.0	motor_selective_stop_signal	89.0	True	0.553	89.0	False	stim	crit_go	s642	False
473.299	0.85	0.1	2.25	0.0	89.0	motor_selective_stop_signal	71.0	True	0.613	89.0	False	stim	crit_stop_failure	s642	False
475.555	0.85	0.05	3.25	1.0	89.0	motor_selective_stop_signal	-1.0	True	n/a	89.0	True	stim	crit_stop_success	s642	False
478.81	0.85	0.1	2.95	1.0	71.0	motor_selective_stop_signal	71.0	True	0.441	89.0	False	stim	noncrit_nosignal	s642	False
481.763	0.85	0.1	2.55	0.0	89.0	motor_selective_stop_signal	71.0	True	0.478	89.0	False	stim	crit_stop_failure	s642	False
484.319	0.85	0.05	2.35	1.0	89.0	motor_selective_stop_signal	89.0	True	0.713	89.0	False	stim	crit_go	s642	False
486.674	0.85	0.05	2.55	1.0	89.0	motor_selective_stop_signal	-1.0	True	n/a	89.0	True	stim	crit_stop_success	s642	False
489.23	0.85	0.1	2.35	1.0	89.0	motor_selective_stop_signal	89.0	True	0.641	89.0	False	stim	crit_go	s642	False
491.586	0.85	0.1	2.25	1.0	89.0	motor_selective_stop_signal	89.0	True	0.538	89.0	False	stim	crit_go	s642	False
493.842	0.85	0.1	2.45	1.0	71.0	motor_selective_stop_signal	71.0	True	0.537	89.0	False	stim	noncrit_signal	s642	False
496.299	0.85	0.1	2.35	1.0	89.0	motor_selective_stop_signal	89.0	True	0.643	89.0	False	stim	crit_go	s642	False
498.652	0.85	0.1	2.65	0.0	71.0	motor_selective_stop_signal	-1.0	True	n/a	89.0	True	stim	noncrit_signal	s642	False
501.308	0.85	0.1	2.25	1.0	89.0	motor_selective_stop_signal	89.0	True	0.585	89.0	False	stim	crit_go	s642	False
503.563	0.85	0.1	2.25	1.0	89.0	motor_selective_stop_signal	-1.0	True	n/a	89.0	True	stim	crit_stop_success	s642	False
505.818	0.85	0.15	2.45	1.0	71.0	motor_selective_stop_signal	71.0	True	0.426	89.0	False	stim	noncrit_nosignal	s642	False
508.273	0.85	0.15	2.25	1.0	71.0	motor_selective_stop_signal	71.0	True	0.713	89.0	False	stim	noncrit_nosignal	s642	False
510.529	0.85	0.15	2.55	1.0	89.0	motor_selective_stop_signal	-1.0	True	n/a	89.0	True	stim	crit_stop_success	s642	False
513.085	0.85	0.2	2.25	1.0	89.0	motor_selective_stop_signal	89.0	True	0.521	89.0	False	stim	crit_go	s642	False
515.342	0.85	0.2	2.35	1.0	71.0	motor_selective_stop_signal	71.0	True	0.802	89.0	False	stim	noncrit_signal	s642	False
517.696	0.85	0.2	2.25	1.0	89.0	motor_selective_stop_signal	89.0	True	0.55	89.0	False	stim	crit_stop_failure	s642	False
530.467	0.85	0.15	2.55	1.0	89.0	motor_selective_stop_signal	-1.0	True	n/a	89.0	True	stim	crit_stop_success	s642	False
533.021	0.85	0.2	2.55	1.0	71.0	motor_selective_stop_signal	71.0	True	0.606	89.0	False	stim	noncrit_nosignal	s642	False
535.577	0.85	0.2	2.35	1.0	89.0	motor_selective_stop_signal	89.0	True	0.551	89.0	False	stim	crit_go	s642	False
537.934	0.85	0.2	2.35	1.0	71.0	motor_selective_stop_signal	71.0	True	0.478	89.0	False	stim	noncrit_nosignal	s642	False
540.29	0.85	0.2	2.25	1.0	89.0	motor_selective_stop_signal	89.0	True	0.467	89.0	False	stim	crit_go	s642	False
542.546	0.85	0.2	2.45	1.0	71.0	motor_selective_stop_signal	71.0	True	0.508	89.0	False	stim	noncrit_signal	s642	False
545.002	0.85	0.2	2.25	1.0	89.0	motor_selective_stop_signal	89.0	True	0.435	89.0	False	stim	crit_go	s642	False
547.259	0.85	0.2	2.45	1.0	71.0	motor_selective_stop_signal	71.0	True	0.429	89.0	False	stim	noncrit_signal	s642	False
549.713	0.85	0.2	2.65	1.0	89.0	motor_selective_stop_signal	-1.0	True	n/a	89.0	True	stim	crit_stop_success	s642	False
552.369	0.85	0.25	2.45	1.0	71.0	motor_selective_stop_signal	71.0	True	0.504	89.0	False	stim	noncrit_nosignal	s642	False
554.824	0.85	0.25	2.35	1.0	71.0	motor_selective_stop_signal	71.0	True	0.38	89.0	False	stim	noncrit_nosignal	s642	False
557.18	0.85	0.25	2.25	1.0	71.0	motor_selective_stop_signal	71.0	True	0.454	89.0	False	stim	noncrit_signal	s642	False
559.436	0.85	0.25	2.55	1.0	89.0	motor_selective_stop_signal	89.0	True	0.671	89.0	False	stim	crit_go	s642	False
561.992	0.85	0.25	2.25	1.0	89.0	motor_selective_stop_signal	89.0	True	0.403	89.0	False	stim	crit_go	s642	False
564.246	0.85	0.25	2.25	1.0	71.0	motor_selective_stop_signal	71.0	True	0.396	89.0	False	stim	noncrit_nosignal	s642	False
566.502	0.85	0.25	2.35	1.0	71.0	motor_selective_stop_signal	71.0	True	0.386	89.0	False	stim	noncrit_nosignal	s642	False
568.858	0.85	0.25	2.25	1.0	71.0	motor_selective_stop_signal	71.0	True	0.518	89.0	False	stim	noncrit_nosignal	s642	False
571.113	0.85	0.25	2.65	1.0	71.0	motor_selective_stop_signal	71.0	True	0.37	89.0	False	stim	noncrit_signal	s642	False
573.769	0.85	0.25	2.35	1.0	71.0	motor_selective_stop_signal	71.0	True	0.452	89.0	False	stim	noncrit_signal	s642	False
576.125	0.85	0.25	2.45	1.0	71.0	motor_selective_stop_signal	71.0	True	0.552	89.0	False	stim	noncrit_nosignal	s642	False
578.58	0.85	0.25	2.35	1.0	71.0	motor_selective_stop_signal	71.0	True	0.589	89.0	False	stim	noncrit_signal	s642	False
580.936	0.85	0.25	2.25	1.0	89.0	motor_selective_stop_signal	-1.0	True	n/a	89.0	True	stim	crit_stop_success	s642	False
583.191	0.85	0.3	2.25	1.0	71.0	motor_selective_stop_signal	71.0	True	0.499	89.0	False	stim	noncrit_nosignal	s642	False
585.447	0.85	0.3	2.25	1.0	89.0	motor_selective_stop_signal	-1.0	True	n/a	89.0	True	stim	crit_stop_success	s642	False
587.701	0.85	0.35	2.25	1.0	89.0	motor_selective_stop_signal	89.0	True	0.696	89.0	False	stim	crit_go	s642	False
589.954	0.85	0.35	2.35	1.0	89.0	motor_selective_stop_signal	89.0	True	0.431	89.0	False	stim	crit_stop_failure	s642	False
592.31	0.85	0.3	3.35	1.0	71.0	motor_selective_stop_signal	71.0	True	0.483	89.0	False	stim	noncrit_nosignal	s642	False
595.667	0.85	0.3	2.55	1.0	89.0	motor_selective_stop_signal	89.0	True	0.545	89.0	False	stim	crit_go	s642	False
598.223	0.85	0.3	2.75	1.0	89.0	motor_selective_stop_signal	89.0	True	0.523	89.0	False	stim	crit_stop_failure	s642	False
600.979	0.85	0.25	2.75	1.0	89.0	motor_selective_stop_signal	89.0	True	0.52	89.0	False	stim	crit_go	s642	False
603.733	0.85	0.25	2.65	1.0	89.0	motor_selective_stop_signal	89.0	True	0.513	89.0	False	stim	crit_go	s642	False
606.388	0.85	0.25	2.45	1.0	89.0	motor_selective_stop_signal	-1.0	True	n/a	89.0	True	stim	crit_stop_success	s642	False
608.844	0.85	0.3	2.25	1.0	89.0	motor_selective_stop_signal	89.0	True	0.612	89.0	False	stim	crit_go	s642	False
611.101	0.85	0.3	2.35	1.0	71.0	motor_selective_stop_signal	71.0	True	0.495	89.0	False	stim	noncrit_nosignal	s642	False
613.457	0.85	0.3	2.45	1.0	89.0	motor_selective_stop_signal	89.0	True	0.46	89.0	False	stim	crit_go	s642	False
615.911	0.85	0.3	3.05	1.0	71.0	motor_selective_stop_signal	71.0	True	0.922	89.0	False	stim	noncrit_nosignal	s642	False
618.967	0.85	0.3	2.35	1.0	71.0	motor_selective_stop_signal	71.0	True	0.527	89.0	False	stim	noncrit_nosignal	s642	False
621.319	0.85	0.3	2.25	1.0	71.0	motor_selective_stop_signal	71.0	True	0.468	89.0	False	stim	noncrit_signal	s642	False
623.575	0.85	0.3	2.35	1.0	71.0	motor_selective_stop_signal	71.0	True	0.461	89.0	False	stim	noncrit_nosignal	s642	False
625.932	0.85	0.3	2.35	1.0	89.0	motor_selective_stop_signal	89.0	True	0.469	89.0	False	stim	crit_go	s642	False
628.288	0.85	0.3	2.35	1.0	89.0	motor_selective_stop_signal	89.0	True	0.683	89.0	False	stim	crit_go	s642	False
630.645	0.85	0.3	2.35	1.0	71.0	motor_selective_stop_signal	71.0	True	0.554	89.0	False	stim	noncrit_signal	s642	False
633.001	0.85	0.3	2.35	1.0	89.0	motor_selective_stop_signal	89.0	True	0.51	89.0	False	stim	crit_go	s642	False
635.354	0.85	0.3	2.25	1.0	71.0	motor_selective_stop_signal	71.0	True	0.39	89.0	False	stim	noncrit_nosignal	s642	False
637.611	0.85	0.3	2.35	1.0	89.0	motor_selective_stop_signal	-1.0	True	n/a	89.0	True	stim	crit_stop_success	s642	False
639.966	0.85	0.35	2.45	1.0	89.0	motor_selective_stop_signal	89.0	True	0.535	89.0	False	stim	crit_go	s642	False
642.422	0.85	0.35	2.35	1.0	89.0	motor_selective_stop_signal	89.0	True	0.621	89.0	False	stim	crit_go	s642	False
644.778	0.85	0.35	2.85	1.0	71.0	motor_selective_stop_signal	71.0	True	0.566	89.0	False	stim	noncrit_nosignal	s642	False
647.632	0.85	0.35	2.55	1.0	71.0	motor_selective_stop_signal	71.0	True	0.567	89.0	False	stim	noncrit_nosignal	s642	False
650.188	0.85	0.35	2.75	1.0	71.0	motor_selective_stop_signal	71.0	True	0.456	89.0	False	stim	noncrit_nosignal	s642	False
