onset	duration	movement_onset	EV	action	block_duration	experiment_exp_id	gain_amount	gain_probability	key_press	loss_amount	loss_probability	num_cards	num_click_in_round	num_loss_cards	risk	response_time	total_cards	trial_id	trial_type	worker_id	junk	feedback
3.019	6.354	9.373	-0.5142208515605953	draw_card	6.354	columbia_card_task_fmri	12.0	0.8333333333333334	89.0	-70.0	0.1666666666666666	6.0	1.0	1.0	-1.3840895832535196	6.354	n/a	stim	poldrack-single-stim	s643	False	1
9.375	1.221	10.596	-3.247554184893928	draw_card	1.221	columbia_card_task_fmri	12.0	0.8	89.0	-70.0	0.2	6.0	2.0	1.0	0.8548319195793539	1.221	n/a	stim	poldrack-single-stim	s643	False	1
10.598	1.612	12.21	-7.347554184893929	draw_card	1.612	columbia_card_task_fmri	12.0	0.75	89.0	-70.0	0.25	6.0	3.0	1.0	3.560331257360133	1.612	n/a	stim	poldrack-single-stim	s643	False	1
12.212	2.763	14.975	-14.180887518227262	end_round	2.763	columbia_card_task_fmri	12.0	0.6666666666666667	71.0	-70.0	0.3333333333333333	6.0	4.0	1.0	6.706938368382247	2.763	3.0	stim	poldrack-single-stim	s643	False	1
15.732	1.5	14.981	n/a	-1.0	2.25	columbia_card_task_fmri	n/a	n/a	-1.0	n/a	n/a	n/a	n/a	n/a	n/a	n/a	n/a	ITI	poldrack-single-stim	s643	False	0
17.234	3.207	20.441	0.3191124817727386	draw_card	3.207	columbia_card_task_fmri	14.0	0.8333333333333334	89.0	-75.0	0.1666666666666666	6.0	1.0	1.0	1.222948956296591	3.207	1.0	stim	poldrack-single-stim	s643	False	0
21.197	1.5	20.446	n/a	-1.0	2.386	columbia_card_task_fmri	n/a	n/a	-1.0	n/a	n/a	n/a	n/a	n/a	n/a	n/a	n/a	ITI	poldrack-single-stim	s643	False	0
22.838	2.415	25.253	1.9857791484394047	draw_card	2.415	columbia_card_task_fmri	15.0	0.8333333333333334	89.0	-70.0	0.1666666666666666	6.0	1.0	1.0	-0.2668217536193253	2.415	1.0	stim	poldrack-single-stim	s643	False	0
26.007	1.5	25.256	n/a	-1.0	2.59	columbia_card_task_fmri	n/a	n/a	-1.0	n/a	n/a	n/a	n/a	n/a	n/a	n/a	n/a	ITI	poldrack-single-stim	s643	False	0
27.85	1.801	29.651	2.8191124817727387	draw_card	1.801	columbia_card_task_fmri	17.0	0.8333333333333334	89.0	-75.0	0.1666666666666666	6.0	1.0	1.0	2.340330655576992	1.801	n/a	stim	poldrack-single-stim	s643	False	1
29.653	0.749	30.402	-0.2475541848939277	draw_card	0.749	columbia_card_task_fmri	17.0	0.8	89.0	-75.0	0.2	6.0	2.0	1.0	4.8526331001479335	0.749	n/a	stim	poldrack-single-stim	s643	False	1
30.404	2.647	33.051	-4.847554184893929	draw_card	2.647	columbia_card_task_fmri	17.0	0.75	89.0	-75.0	0.25	6.0	3.0	1.0	7.888426847184739	2.647	3.0	stim	poldrack-single-stim	s643	False	0
33.808	1.5	33.057	n/a	-1.0	2.658	columbia_card_task_fmri	n/a	n/a	-1.0	n/a	n/a	n/a	n/a	n/a	n/a	n/a	n/a	ITI	poldrack-single-stim	s643	False	0
35.718	2.275	37.993	4.152445815106071	draw_card	2.275	columbia_card_task_fmri	24.0	0.75	89.0	-60.0	0.25	8.0	1.0	2.0	4.425911709937239	2.275	n/a	stim	poldrack-single-stim	s643	False	1
37.994	0.716	38.71	1.1524458151060708	draw_card	0.716	columbia_card_task_fmri	24.0	0.7142857142857143	89.0	-60.0	0.2857142857142857	8.0	2.0	2.0	5.999419815320799	0.716	n/a	stim	poldrack-single-stim	s643	False	1
38.712	0.805	39.517	-2.847554184893929	draw_card	0.805	columbia_card_task_fmri	24.0	0.6666666666666667	89.0	-60.0	0.3333333333333333	8.0	3.0	2.0	7.649338646958057	0.805	n/a	stim	poldrack-single-stim	s643	False	1
39.519	4.515	44.034	-8.447554184893932	draw_card	4.515	columbia_card_task_fmri	24.0	0.6	89.0	-60.0	0.4	8.0	4.0	2.0	9.202153899000429	4.515	n/a	stim	poldrack-single-stim	s643	False	1
44.036	0.798	44.834	-16.84755418489393	end_round	0.798	columbia_card_task_fmri	24.0	0.5	71.0	-60.0	0.5	8.0	5.0	2.0	10.05040037194459	0.798	4.0	stim	poldrack-single-stim	s643	False	1
45.591	1.5	44.84	n/a	-1.0	2.386	columbia_card_task_fmri	n/a	n/a	-1.0	n/a	n/a	n/a	n/a	n/a	n/a	n/a	n/a	ITI	poldrack-single-stim	s643	False	0
47.229	1.989	49.218	4.152445815106071	draw_card	1.989	columbia_card_task_fmri	29.0	0.75	89.0	-75.0	0.25	8.0	1.0	2.0	13.082656938692187	1.989	n/a	stim	poldrack-single-stim	s643	False	1
49.219	0.672	49.891	0.438160100820359	draw_card	0.672	columbia_card_task_fmri	29.0	0.7142857142857143	89.0	-75.0	0.2857142857142857	8.0	2.0	2.0	15.031135431476995	0.672	2.0	stim	poldrack-single-stim	s643	False	0
50.647	1.5	49.896	n/a	-1.0	2.386	columbia_card_task_fmri	n/a	n/a	-1.0	n/a	n/a	n/a	n/a	n/a	n/a	n/a	n/a	ITI	poldrack-single-stim	s643	False	0
52.284	1.921	54.205	-0.0697764071161488	draw_card	1.921	columbia_card_task_fmri	17.0	0.7777777777777778	89.0	-65.0	0.2222222222222222	9.0	1.0	2.0	2.1447222922447864	1.921	1.0	stim	poldrack-single-stim	s643	False	0
54.96	1.5	54.209	n/a	-1.0	2.25	columbia_card_task_fmri	n/a	n/a	-1.0	n/a	n/a	n/a	n/a	n/a	n/a	n/a	n/a	ITI	poldrack-single-stim	s643	False	0
56.463	3.327	59.79	4.2524458151060704	draw_card	3.327	columbia_card_task_fmri	14.0	0.9	89.0	-95.0	0.1	10.0	1.0	1.0	0.7548937762201859	3.327	n/a	stim	poldrack-single-stim	s643	False	1
59.792	2.755	62.547	3.0413347039949583	draw_card	2.755	columbia_card_task_fmri	14.0	0.8888888888888888	89.0	-95.0	0.1111111111111111	10.0	2.0	1.0	2.309367679770212	2.755	n/a	stim	poldrack-single-stim	s643	False	1
62.55	2.123	64.673	1.5274458151060708	end_round	2.123	columbia_card_task_fmri	14.0	0.875	71.0	-95.0	0.125	10.0	3.0	1.0	4.101370689848992	2.123	2.0	stim	poldrack-single-stim	s643	False	1
65.43	1.5	64.679	n/a	-1.0	2.318	columbia_card_task_fmri	n/a	n/a	-1.0	n/a	n/a	n/a	n/a	n/a	n/a	n/a	n/a	ITI	poldrack-single-stim	s643	False	0
66.999	2.651	69.65	0.1524458151060708	draw_card	2.651	columbia_card_task_fmri	15.0	0.8	89.0	-65.0	0.2	10.0	1.0	2.0	0.0553375872610502	2.651	n/a	stim	poldrack-single-stim	s643	False	1
69.652	1.393	71.045	-1.625331962671706	draw_card	1.393	columbia_card_task_fmri	15.0	0.7777777777777778	89.0	-65.0	0.2222222222222222	10.0	2.0	2.0	1.3137294305724296	1.393	n/a	stim	poldrack-single-stim	s643	False	1
71.046	2.113	73.159	-3.847554184893929	draw_card	2.113	columbia_card_task_fmri	15.0	0.75	89.0	-65.0	0.25	10.0	3.0	2.0	2.694773034337125	2.113	3.0	stim	poldrack-single-stim	s643	False	0
73.914	1.5	73.163	n/a	-1.0	2.25	columbia_card_task_fmri	n/a	n/a	-1.0	n/a	n/a	n/a	n/a	n/a	n/a	n/a	n/a	ITI	poldrack-single-stim	s643	False	0
75.417	2.137	77.554	1.7524458151060722	draw_card	2.137	columbia_card_task_fmri	17.0	0.8	89.0	-65.0	0.2	10.0	1.0	2.0	0.8548319195793539	2.137	n/a	stim	poldrack-single-stim	s643	False	1
77.556	1.515	79.071	-0.0697764071161488	draw_card	1.515	columbia_card_task_fmri	17.0	0.7777777777777778	89.0	-65.0	0.2222222222222222	10.0	2.0	2.0	2.1447222922447864	1.515	n/a	stim	poldrack-single-stim	s643	False	1
79.073	1.63	80.703	-2.347554184893929	draw_card	1.63	columbia_card_task_fmri	17.0	0.75	89.0	-65.0	0.25	10.0	3.0	2.0	3.560331257360133	1.63	3.0	stim	poldrack-single-stim	s643	False	0
81.46	1.5	80.709	n/a	-1.0	2.25	columbia_card_task_fmri	n/a	n/a	-1.0	n/a	n/a	n/a	n/a	n/a	n/a	n/a	n/a	ITI	poldrack-single-stim	s643	False	0
82.963	2.553	85.516	0.3191124817727386	draw_card	2.553	columbia_card_task_fmri	13.0	0.8333333333333334	89.0	-70.0	0.1666666666666666	12.0	1.0	2.0	-1.0116731208896077	2.553	1.0	stim	poldrack-single-stim	s643	False	0
86.274	1.5	85.523	n/a	-1.0	2.386	columbia_card_task_fmri	n/a	n/a	-1.0	n/a	n/a	n/a	n/a	n/a	n/a	n/a	n/a	ITI	poldrack-single-stim	s643	False	0
87.913	3.321	91.234	0.3191124817727386	draw_card	3.321	columbia_card_task_fmri	15.0	0.8333333333333334	89.0	-80.0	0.1666666666666666	12.0	1.0	2.0	3.4577535182913905	3.321	n/a	stim	poldrack-single-stim	s643	False	1
91.236	1.682	92.918	-1.1202814576212043	draw_card	1.682	columbia_card_task_fmri	15.0	0.8181818181818181	89.0	-80.0	0.1818181818181818	12.0	2.0	2.0	4.693699106431637	1.682	n/a	stim	poldrack-single-stim	s643	False	1
92.92	2.074	94.994	-2.847554184893929	draw_card	2.074	columbia_card_task_fmri	15.0	0.8	89.0	-80.0	0.2	12.0	3.0	2.0	6.0520636554673	2.074	n/a	stim	poldrack-single-stim	s643	False	1
94.996	2.317	97.313	-4.958665296005042	end_round	2.317	columbia_card_task_fmri	15.0	0.7777777777777778	71.0	-80.0	0.2222222222222222	12.0	4.0	2.0	7.546674899529684	2.317	3.0	stim	poldrack-single-stim	s643	False	1
98.069	1.5	97.318	n/a	-1.0	2.386	columbia_card_task_fmri	n/a	n/a	-1.0	n/a	n/a	n/a	n/a	n/a	n/a	n/a	n/a	ITI	poldrack-single-stim	s643	False	0
99.707	2.908	102.615	-0.6475541848939281	draw_card	2.908	columbia_card_task_fmri	14.0	0.8	89.0	-65.0	0.2	15.0	1.0	3.0	-0.3443999870226726	2.908	n/a	stim	poldrack-single-stim	s643	False	1
102.617	1.669	104.286	-1.7761256134653562	draw_card	1.669	columbia_card_task_fmri	14.0	0.7857142857142857	89.0	-65.0	0.2142857142857142	15.0	2.0	3.0	0.4708180508907205	1.669	n/a	stim	poldrack-single-stim	s643	False	1
104.288	1.371	105.659	-3.078323415663161	draw_card	1.371	columbia_card_task_fmri	14.0	0.7692307692307692	89.0	-65.0	0.2307692307692307	15.0	3.0	3.0	1.339215869895	1.371	n/a	stim	poldrack-single-stim	s643	False	1
105.661	2.052	107.713	-4.597554184893929	draw_card	2.052	columbia_card_task_fmri	14.0	0.75	89.0	-65.0	0.25	15.0	4.0	3.0	2.262002785926676	2.052	4.0	stim	poldrack-single-stim	s643	False	0
108.467	1.5	107.716	n/a	-1.0	2.726	columbia_card_task_fmri	n/a	n/a	-1.0	n/a	n/a	n/a	n/a	n/a	n/a	n/a	n/a	ITI	poldrack-single-stim	s643	False	0
110.446	2.877	113.323	-0.7225541848939292	end_round	2.877	columbia_card_task_fmri	1.0	0.9375	71.0	-45.0	0.0625	16.0	1.0	1.0	-20.771100868131285	2.877	0.0	stim	poldrack-single-stim	s643	False	1
114.079	1.5	113.328	n/a	-1.0	2.454	columbia_card_task_fmri	n/a	n/a	-1.0	n/a	n/a	n/a	n/a	n/a	n/a	n/a	n/a	ITI	poldrack-single-stim	s643	False	0
115.786	1.669	117.455	0.2149458151060708	draw_card	1.669	columbia_card_task_fmri	15.0	0.8125	89.0	-70.0	0.1875	16.0	1.0	3.0	1.2311542064081706	1.669	n/a	stim	poldrack-single-stim	s643	False	1
117.457	0.868	118.325	-0.8475541848939292	draw_card	0.868	columbia_card_task_fmri	15.0	0.8	89.0	-70.0	0.2	16.0	2.0	3.0	2.054117996120993	0.868	2.0	stim	poldrack-single-stim	s643	False	0
119.079	1.5	118.328	n/a	-1.0	2.318	columbia_card_task_fmri	n/a	n/a	-1.0	n/a	n/a	n/a	n/a	n/a	n/a	n/a	n/a	ITI	poldrack-single-stim	s643	False	0
120.649	2.949	123.598	7.152445815106071	draw_card	2.949	columbia_card_task_fmri	30.0	0.7	89.0	-50.0	0.3	10.0	1.0	3.0	4.713307222590906	2.949	1.0	stim	poldrack-single-stim	s643	False	0
124.355	1.5	123.604	n/a	-1.0	2.318	columbia_card_task_fmri	n/a	n/a	-1.0	n/a	n/a	n/a	n/a	n/a	n/a	n/a	n/a	ITI	poldrack-single-stim	s643	False	0
125.926	3.05	128.976	6.552445815106071	draw_card	3.05	columbia_card_task_fmri	17.0	0.8666666666666667	89.0	-70.0	0.1333333333333333	15.0	1.0	2.0	-2.368648942513428	3.05	n/a	stim	poldrack-single-stim	s643	False	1
128.979	1.706	130.685	5.723874386534644	draw_card	1.706	columbia_card_task_fmri	17.0	0.8571428571428572	89.0	-70.0	0.1428571428571428	15.0	2.0	2.0	-1.4999443782516266	1.706	n/a	stim	poldrack-single-stim	s643	False	1
130.687	2.372	133.059	4.767830430490686	draw_card	2.372	columbia_card_task_fmri	17.0	0.8461538461538461	89.0	-70.0	0.1538461538461538	15.0	3.0	2.0	-0.5545538709694178	2.372	n/a	stim	poldrack-single-stim	s643	False	1
133.06	3.418	136.478	3.6524458151060726	draw_card	3.418	columbia_card_task_fmri	17.0	0.8333333333333334	89.0	-70.0	0.1666666666666666	15.0	4.0	2.0	0.4780527923281852	3.418	4.0	stim	poldrack-single-stim	s643	False	0
137.236	1.5	136.485	n/a	-1.0	2.59	columbia_card_task_fmri	n/a	n/a	-1.0	n/a	n/a	n/a	n/a	n/a	n/a	n/a	n/a	ITI	poldrack-single-stim	s643	False	0
139.079	2.438	141.517	1.7774458151060708	draw_card	2.438	columbia_card_task_fmri	7.0	0.9375	89.0	-95.0	0.0625	16.0	1.0	1.0	-7.248257695481929	2.438	n/a	stim	poldrack-single-stim	s643	False	1
141.519	1.189	142.708	1.352445815106071	end_round	1.189	columbia_card_task_fmri	7.0	0.9333333333333332	71.0	-95.0	0.0666666666666666	16.0	2.0	1.0	-6.496051028017682	1.189	1.0	stim	poldrack-single-stim	s643	False	1
143.465	1.5	142.714	n/a	-1.0	2.726	columbia_card_task_fmri	n/a	n/a	-1.0	n/a	n/a	n/a	n/a	n/a	n/a	n/a	n/a	ITI	poldrack-single-stim	s643	False	0
145.444	1.991	147.435	3.339945815106071	end_round	1.991	columbia_card_task_fmri	9.0	0.9375	71.0	-100.0	0.0625	16.0	1.0	1.0	-5.555552097249453	1.991	0.0	stim	poldrack-single-stim	s643	False	1
148.193	1.5	147.442	n/a	-1.0	2.522	columbia_card_task_fmri	n/a	n/a	-1.0	n/a	n/a	n/a	n/a	n/a	n/a	n/a	n/a	ITI	poldrack-single-stim	s643	False	0
149.968	1.731	151.699	4.277445815106071	draw_card	1.731	columbia_card_task_fmri	15.0	0.875	89.0	-80.0	0.125	16.0	1.0	2.0	-0.5259817542397158	1.731	n/a	stim	poldrack-single-stim	s643	False	1
151.701	1.285	152.986	3.4857791484394047	draw_card	1.285	columbia_card_task_fmri	15.0	0.8666666666666667	89.0	-80.0	0.1333333333333333	16.0	2.0	2.0	0.3489392316131017	1.285	n/a	stim	poldrack-single-stim	s643	False	1
152.989	1.415	154.404	2.5810172436775014	draw_card	1.415	columbia_card_task_fmri	15.0	0.8571428571428572	89.0	-80.0	0.1428571428571428	16.0	3.0	2.0	1.297637402138612	1.415	n/a	stim	poldrack-single-stim	s643	False	1
154.407	1.783	156.19	1.537061199721454	draw_card	1.783	columbia_card_task_fmri	15.0	0.8461538461538461	89.0	-80.0	0.1538461538461538	16.0	4.0	2.0	2.330075961445893	1.783	n/a	stim	poldrack-single-stim	s643	False	1
156.193	0.861	157.054	0.3191124817727386	end_round	0.861	columbia_card_task_fmri	15.0	0.8333333333333334	71.0	-80.0	0.1666666666666666	16.0	5.0	2.0	3.4577535182913905	0.861	4.0	stim	poldrack-single-stim	s643	False	1
157.811	1.5	157.06	n/a	-1.0	3.134	columbia_card_task_fmri	n/a	n/a	-1.0	n/a	n/a	n/a	n/a	n/a	n/a	n/a	n/a	ITI	poldrack-single-stim	s643	False	0
160.199	1.995	162.194	6.402445815106071	draw_card	1.995	columbia_card_task_fmri	16.0	0.875	89.0	-70.0	0.125	16.0	1.0	2.0	-3.5002425144451976	1.995	n/a	stim	poldrack-single-stim	s643	False	1
162.196	1.311	163.507	5.685779148439404	draw_card	1.311	columbia_card_task_fmri	16.0	0.8666666666666667	89.0	-70.0	0.1333333333333333	16.0	2.0	2.0	-2.708322782575607	1.311	2.0	stim	poldrack-single-stim	s643	False	0
164.262	1.5	163.511	n/a	-1.0	2.386	columbia_card_task_fmri	n/a	n/a	-1.0	n/a	n/a	n/a	n/a	n/a	n/a	n/a	n/a	ITI	poldrack-single-stim	s643	False	0
165.901	1.825	167.726	7.714945815106071	draw_card	1.825	columbia_card_task_fmri	30.0	0.6875	89.0	-45.0	0.3125	16.0	1.0	5.0	2.8171198429627253	1.825	1.0	stim	poldrack-single-stim	s643	False	0
168.481	1.5	167.73	n/a	-1.0	2.386	columbia_card_task_fmri	n/a	n/a	-1.0	n/a	n/a	n/a	n/a	n/a	n/a	n/a	n/a	ITI	poldrack-single-stim	s643	False	0
170.12	1.499	171.619	-0.5142208515605953	draw_card	1.499	columbia_card_task_fmri	13.0	0.8333333333333334	89.0	-75.0	0.1666666666666666	6.0	1.0	1.0	0.8504982640673973	1.499	n/a	stim	poldrack-single-stim	s643	False	1
171.622	2.021	173.643	-3.447554184893929	draw_card	2.021	columbia_card_task_fmri	13.0	0.8	89.0	-75.0	0.2	6.0	2.0	1.0	3.253452708756299	2.021	n/a	stim	poldrack-single-stim	s643	False	1
173.644	0.666	174.31	-7.847554184893929	end_round	0.666	columbia_card_task_fmri	13.0	0.75	71.0	-75.0	0.25	6.0	3.0	1.0	6.157133246993922	0.666	2.0	stim	poldrack-single-stim	s643	False	1
175.066	1.5	174.315	n/a	-1.0	2.318	columbia_card_task_fmri	n/a	n/a	-1.0	n/a	n/a	n/a	n/a	n/a	n/a	n/a	n/a	ITI	poldrack-single-stim	s643	False	0
176.638	2.423	179.061	1.1524458151060726	draw_card	2.423	columbia_card_task_fmri	14.0	0.8333333333333334	89.0	-70.0	0.1666666666666666	6.0	1.0	1.0	-0.6392504379265027	2.423	n/a	stim	poldrack-single-stim	s643	False	1
179.063	0.622	179.685	-1.647554184893928	end_round	0.622	columbia_card_task_fmri	14.0	0.8	71.0	-70.0	0.2	6.0	2.0	1.0	1.6543503095627656	0.622	1.0	stim	poldrack-single-stim	s643	False	1
180.442	1.5	179.691	n/a	-1.0	2.318	columbia_card_task_fmri	n/a	n/a	-1.0	n/a	n/a	n/a	n/a	n/a	n/a	n/a	n/a	ITI	poldrack-single-stim	s643	False	0
182.014	1.485	183.499	1.1524458151060726	draw_card	1.485	columbia_card_task_fmri	16.0	0.8333333333333334	89.0	-80.0	0.1666666666666666	6.0	1.0	1.0	3.830236287006812	1.485	n/a	stim	poldrack-single-stim	s643	False	1
183.501	1.648	185.149	-2.0475541848939285	draw_card	1.648	columbia_card_task_fmri	16.0	0.8	89.0	-80.0	0.2	6.0	2.0	1.0	6.451881744093377	1.648	2.0	stim	poldrack-single-stim	s643	False	0
185.906	1.5	185.155	n/a	-1.0	2.862	columbia_card_task_fmri	n/a	n/a	-1.0	n/a	n/a	n/a	n/a	n/a	n/a	n/a	n/a	ITI	poldrack-single-stim	s643	False	0
188.022	2.478	190.5	3.6524458151060726	draw_card	2.478	columbia_card_task_fmri	17.0	0.8333333333333334	89.0	-70.0	0.1666666666666666	6.0	1.0	1.0	0.4780527923281852	2.478	n/a	stim	poldrack-single-stim	s643	False	1
190.503	1.028	191.531	0.7524458151060722	draw_card	1.028	columbia_card_task_fmri	17.0	0.8	89.0	-70.0	0.2	6.0	2.0	1.0	2.8536693774296538	1.028	2.0	stim	poldrack-single-stim	s643	False	0
192.287	1.5	191.536	n/a	-1.0	2.726	columbia_card_task_fmri	n/a	n/a	-1.0	n/a	n/a	n/a	n/a	n/a	n/a	n/a	n/a	ITI	poldrack-single-stim	s643	False	0
194.267	1.778	196.045	3.652445815106071	draw_card	1.778	columbia_card_task_fmri	25.0	0.75	89.0	-65.0	0.25	8.0	1.0	2.0	7.022771639189493	1.778	n/a	stim	poldrack-single-stim	s643	False	1
196.047	1.049	197.096	0.438160100820359	draw_card	1.049	columbia_card_task_fmri	25.0	0.7142857142857143	89.0	-65.0	0.2857142857142857	8.0	2.0	2.0	8.708777633420382	1.049	n/a	stim	poldrack-single-stim	s643	False	1
197.098	6.7	203.798	-3.8475541848939256	draw_card	6.7	columbia_card_task_fmri	25.0	0.6666666666666667	89.0	-65.0	0.3333333333333333	8.0	3.0	2.0	10.476648422480755	6.7	3.0	stim	poldrack-single-stim	s643	False	0
204.552	1.5	203.801	n/a	-1.0	2.25	columbia_card_task_fmri	n/a	n/a	-1.0	n/a	n/a	n/a	n/a	n/a	n/a	n/a	n/a	ITI	poldrack-single-stim	s643	False	0
206.055	0.22	206.275	3.652445815106071	draw_card	0.22	columbia_card_task_fmri	30.0	0.75	89.0	-80.0	0.25	8.0	1.0	2.0	15.679929191247652	0.22	n/a	stim	poldrack-single-stim	s643	False	1
206.278	2.649	208.927	-0.2761256134653527	draw_card	2.649	columbia_card_task_fmri	30.0	0.7142857142857143	89.0	-80.0	0.2857142857142857	8.0	2.0	2.0	17.74088850495628	2.649	n/a	stim	poldrack-single-stim	s643	False	1
208.929	1.922	210.851	-5.51422085156059	draw_card	1.922	columbia_card_task_fmri	30.0	0.6666666666666667	89.0	-80.0	0.3333333333333333	8.0	3.0	2.0	19.901894292930837	1.922	3.0	stim	poldrack-single-stim	s643	False	0
211.606	1.5	210.855	n/a	-1.0	2.318	columbia_card_task_fmri	n/a	n/a	-1.0	n/a	n/a	n/a	n/a	n/a	n/a	n/a	n/a	ITI	poldrack-single-stim	s643	False	0
213.178	3.037	216.215	3.352445815106072	draw_card	3.037	columbia_card_task_fmri	13.0	0.9	89.0	-95.0	0.1	10.0	1.0	1.0	0.4550816349734745	3.037	n/a	stim	poldrack-single-stim	s643	False	1
216.217	3.016	219.233	2.152445815106071	draw_card	3.016	columbia_card_task_fmri	13.0	0.8888888888888888	89.0	-95.0	0.1111111111111111	10.0	2.0	1.0	1.9952773430585893	3.016	n/a	stim	poldrack-single-stim	s643	False	1
219.238	1.447	220.685	0.6524458151060708	draw_card	1.447	columbia_card_task_fmri	13.0	0.875	89.0	-95.0	0.125	10.0	3.0	1.0	3.77082221376358	1.447	n/a	stim	poldrack-single-stim	s643	False	1
220.687	1.68	222.367	-1.2761256134653562	draw_card	1.68	columbia_card_task_fmri	13.0	0.8571428571428572	89.0	-95.0	0.1428571428571428	10.0	4.0	1.0	5.844287171023012	1.68	4.0	stim	poldrack-single-stim	s643	False	0
223.124	1.5	222.373	n/a	-1.0	2.454	columbia_card_task_fmri	n/a	n/a	-1.0	n/a	n/a	n/a	n/a	n/a	n/a	n/a	n/a	ITI	poldrack-single-stim	s643	False	0
224.831	4.971	229.802	4.7524458151060704	draw_card	4.971	columbia_card_task_fmri	14.0	0.9	89.0	-90.0	0.1	10.0	1.0	1.0	-0.7441308392325539	4.971	n/a	stim	poldrack-single-stim	s643	False	1
229.805	1.577	231.382	3.5968902595505137	draw_card	1.577	columbia_card_task_fmri	14.0	0.8888888888888888	89.0	-90.0	0.1111111111111111	10.0	2.0	1.0	0.7389504541708476	1.577	n/a	stim	poldrack-single-stim	s643	False	1
231.385	0.992	232.377	2.152445815106071	end_round	0.992	columbia_card_task_fmri	14.0	0.875	71.0	-90.0	0.125	10.0	3.0	1.0	2.448661059112709	0.992	2.0	stim	poldrack-single-stim	s643	False	1
233.133	1.5	232.382	n/a	-1.0	2.522	columbia_card_task_fmri	n/a	n/a	-1.0	n/a	n/a	n/a	n/a	n/a	n/a	n/a	n/a	ITI	poldrack-single-stim	s643	False	0
234.909	1.416	236.325	-0.0475541848939284	draw_card	1.416	columbia_card_task_fmri	16.0	0.8	89.0	-70.0	0.2	10.0	1.0	2.0	2.45389108072056	1.416	n/a	stim	poldrack-single-stim	s643	False	1
236.328	0.872	237.2	-1.95866529600504	draw_card	0.872	columbia_card_task_fmri	16.0	0.7777777777777778	89.0	-70.0	0.2222222222222222	10.0	2.0	2.0	3.806775852318509	0.872	n/a	stim	poldrack-single-stim	s643	False	1
237.203	1.976	239.179	-4.347554184893929	end_round	1.976	columbia_card_task_fmri	16.0	0.75	71.0	-70.0	0.25	10.0	3.0	2.0	5.291512842707931	1.976	2.0	stim	poldrack-single-stim	s643	False	1
239.937	1.5	239.186	n/a	-1.0	2.318	columbia_card_task_fmri	n/a	n/a	-1.0	n/a	n/a	n/a	n/a	n/a	n/a	n/a	n/a	ITI	poldrack-single-stim	s643	False	0
241.508	0.019	241.527	-0.7642208515605953	draw_card	0.019	columbia_card_task_fmri	7.0	0.9166666666666666	89.0	-100.0	0.0833333333333333	12.0	1.0	1.0	-2.369723591707544	0.019	n/a	stim	poldrack-single-stim	s643	False	1
241.53	2.979	244.509	-1.5748269121666576	end_round	2.979	columbia_card_task_fmri	7.0	0.9090909090909092	71.0	-100.0	0.0909090909090909	12.0	2.0	1.0	-1.1834896967326325	2.979	1.0	stim	poldrack-single-stim	s643	False	1
245.264	1.5	244.513	n/a	-1.0	2.522	columbia_card_task_fmri	n/a	n/a	-1.0	n/a	n/a	n/a	n/a	n/a	n/a	n/a	n/a	ITI	poldrack-single-stim	s643	False	0
247.039	1.953	248.992	-0.5142208515605935	draw_card	1.953	columbia_card_task_fmri	14.0	0.8333333333333334	89.0	-80.0	0.1666666666666666	12.0	1.0	2.0	3.085274900020316	1.953	n/a	stim	poldrack-single-stim	s643	False	1
248.996	0.755	249.751	-1.9384632758030227	end_round	0.755	columbia_card_task_fmri	14.0	0.8181818181818181	71.0	-80.0	0.1818181818181818	12.0	2.0	2.0	4.308197158042262	0.755	1.0	stim	poldrack-single-stim	s643	False	1
250.506	1.5	249.755	n/a	-1.0	2.998	columbia_card_task_fmri	n/a	n/a	-1.0	n/a	n/a	n/a	n/a	n/a	n/a	n/a	n/a	ITI	poldrack-single-stim	s643	False	0
252.758	5.478	258.236	1.1524458151060708	draw_card	5.478	columbia_card_task_fmri	15.0	0.8333333333333334	89.0	-75.0	0.1666666666666666	12.0	1.0	2.0	1.595404695208131	5.478	n/a	stim	poldrack-single-stim	s643	False	1
258.239	1.168	259.407	-0.2111905485302943	draw_card	1.168	columbia_card_task_fmri	15.0	0.8181818181818181	89.0	-75.0	0.1818181818181818	12.0	2.0	2.0	2.766232143477751	1.168	n/a	stim	poldrack-single-stim	s643	False	1
259.411	2.126	261.537	-1.8475541848939288	draw_card	2.126	columbia_card_task_fmri	15.0	0.8	89.0	-75.0	0.2	12.0	3.0	2.0	4.053033804684944	2.126	n/a	stim	poldrack-single-stim	s643	False	1
261.54	0.795	262.335	-3.847554184893928	end_round	0.795	columbia_card_task_fmri	15.0	0.7777777777777778	71.0	-75.0	0.2222222222222222	12.0	4.0	2.0	5.468909821643422	0.795	3.0	stim	poldrack-single-stim	s643	False	1
263.09	1.5	262.339	n/a	-1.0	2.318	columbia_card_task_fmri	n/a	n/a	-1.0	n/a	n/a	n/a	n/a	n/a	n/a	n/a	n/a	ITI	poldrack-single-stim	s643	False	0
264.662	1.685	266.347	0.1524458151060708	draw_card	1.685	columbia_card_task_fmri	15.0	0.8	89.0	-65.0	0.2	15.0	1.0	3.0	0.0553375872610502	1.685	n/a	stim	poldrack-single-stim	s643	False	1
266.351	1.399	267.75	-0.9904113277510715	draw_card	1.399	columbia_card_task_fmri	15.0	0.7857142857142857	89.0	-65.0	0.2142857142857142	15.0	2.0	3.0	0.8808881199649861	1.399	2.0	stim	poldrack-single-stim	s643	False	0
268.504	1.5	267.753	n/a	-1.0	2.25	columbia_card_task_fmri	n/a	n/a	-1.0	n/a	n/a	n/a	n/a	n/a	n/a	n/a	n/a	ITI	poldrack-single-stim	s643	False	0
270.008	3.191	273.199	-0.5975541848939292	draw_card	3.191	columbia_card_task_fmri	14.0	0.8125	89.0	-70.0	0.1875	16.0	1.0	3.0	0.8410799005909126	3.191	n/a	stim	poldrack-single-stim	s643	False	1
273.202	1.518	274.72	-1.647554184893928	draw_card	1.518	columbia_card_task_fmri	14.0	0.8	89.0	-70.0	0.2	16.0	2.0	3.0	1.6543503095627656	1.518	n/a	stim	poldrack-single-stim	s643	False	1
274.723	2.781	277.504	-2.847554184893929	end_round	2.781	columbia_card_task_fmri	14.0	0.7857142857142857	71.0	-70.0	0.2142857142857142	16.0	3.0	3.0	2.521229256233262	2.781	2.0	stim	poldrack-single-stim	s643	False	1
278.262	1.5	277.511	n/a	-1.0	2.454	columbia_card_task_fmri	n/a	n/a	-1.0	n/a	n/a	n/a	n/a	n/a	n/a	n/a	n/a	ITI	poldrack-single-stim	s643	False	0
279.97	2.005	281.975	-0.6600541848939292	draw_card	2.005	columbia_card_task_fmri	11.0	0.6875	89.0	-30.0	0.3125	16.0	1.0	5.0	-12.926487731739982	2.005	1.0	stim	poldrack-single-stim	s643	False	0
282.732	1.5	281.981	n/a	-1.0	2.318	columbia_card_task_fmri	n/a	n/a	-1.0	n/a	n/a	n/a	n/a	n/a	n/a	n/a	n/a	ITI	poldrack-single-stim	s643	False	0
284.304	2.29	286.594	4.152445815106071	draw_card	2.29	columbia_card_task_fmri	15.0	0.8666666666666667	89.0	-75.0	0.1333333333333333	15.0	1.0	2.0	-1.3495926877232345	2.29	n/a	stim	poldrack-single-stim	s643	False	1
286.595	1.842	288.437	3.295302957963215	draw_card	1.842	columbia_card_task_fmri	15.0	0.8571428571428572	89.0	-75.0	0.1428571428571428	15.0	2.0	2.0	-0.4508894030830532	1.842	n/a	stim	poldrack-single-stim	s643	False	1
288.441	0.994	289.435	2.306291968952224	draw_card	0.994	columbia_card_task_fmri	15.0	0.8461538461538461	89.0	-75.0	0.1538461538461538	15.0	3.0	2.0	0.5271452704231052	0.994	n/a	stim	poldrack-single-stim	s643	False	1
289.438	2.821	292.259	1.1524458151060708	draw_card	2.821	columbia_card_task_fmri	15.0	0.8333333333333334	89.0	-75.0	0.1666666666666666	15.0	4.0	2.0	1.595404695208131	2.821	n/a	stim	poldrack-single-stim	s643	False	1
292.262	0.845	293.107	-0.2111905485302943	end_round	0.845	columbia_card_task_fmri	15.0	0.8181818181818181	71.0	-75.0	0.1818181818181818	15.0	5.0	2.0	2.766232143477751	0.845	4.0	stim	poldrack-single-stim	s643	False	1
293.864	1.5	293.113	n/a	-1.0	2.318	columbia_card_task_fmri	n/a	n/a	-1.0	n/a	n/a	n/a	n/a	n/a	n/a	n/a	n/a	ITI	poldrack-single-stim	s643	False	0
295.436	3.634	299.07	5.885779148439405	draw_card	3.634	columbia_card_task_fmri	17.0	0.8666666666666667	89.0	-75.0	0.1333333333333333	15.0	1.0	2.0	-0.6701947907881518	3.634	n/a	stim	poldrack-single-stim	s643	False	1
299.072	1.643	300.715	5.00958867224893	draw_card	1.643	columbia_card_task_fmri	17.0	0.8571428571428572	89.0	-75.0	0.1428571428571428	15.0	2.0	2.0	0.2485068712103881	1.643	n/a	stim	poldrack-single-stim	s643	False	1
300.72	1.811	302.531	3.9985996612599175	draw_card	1.811	columbia_card_task_fmri	17.0	0.8461538461538461	89.0	-75.0	0.1538461538461538	15.0	3.0	2.0	1.2483035328883716	1.811	n/a	stim	poldrack-single-stim	s643	False	1
302.533	0.884	303.417	2.8191124817727387	end_round	0.884	columbia_card_task_fmri	17.0	0.8333333333333334	71.0	-75.0	0.1666666666666666	15.0	4.0	2.0	2.340330655576992	0.884	3.0	stim	poldrack-single-stim	s643	False	1
304.171	1.5	303.42	n/a	-1.0	2.59	columbia_card_task_fmri	n/a	n/a	-1.0	n/a	n/a	n/a	n/a	n/a	n/a	n/a	n/a	ITI	poldrack-single-stim	s643	False	0
306.014	2.375	308.389	1.4649458151060708	draw_card	2.375	columbia_card_task_fmri	2.0	0.9375	89.0	-25.0	0.0625	16.0	1.0	1.0	-25.3289195800052	2.375	n/a	stim	poldrack-single-stim	s643	False	1
308.392	2.358	310.75	1.3524458151060708	draw_card	2.358	columbia_card_task_fmri	2.0	0.9333333333333332	89.0	-25.0	0.0666666666666666	16.0	2.0	1.0	-25.13253635620499	2.358	n/a	stim	poldrack-single-stim	s643	False	1
310.753	2.304	313.057	1.2238743865346424	draw_card	2.304	columbia_card_task_fmri	2.0	0.9285714285714286	89.0	-25.0	0.0714285714285714	16.0	3.0	1.0	-24.916991452384828	2.304	n/a	stim	poldrack-single-stim	s643	False	1
313.06	0.804	313.864	1.075522738182994	end_round	0.804	columbia_card_task_fmri	2.0	0.9230769230769232	71.0	-25.0	0.0769230769230769	16.0	4.0	1.0	-24.679020092040496	0.804	3.0	stim	poldrack-single-stim	s643	False	1
314.619	1.5	313.868	n/a	-1.0	2.25	columbia_card_task_fmri	n/a	n/a	-1.0	n/a	n/a	n/a	n/a	n/a	n/a	n/a	n/a	ITI	poldrack-single-stim	s643	False	0
316.122	2.253	318.375	3.652445815106071	draw_card	2.253	columbia_card_task_fmri	9.0	0.9375	89.0	-95.0	0.0625	16.0	1.0	1.0	-6.764651177496496	2.253	n/a	stim	poldrack-single-stim	s643	False	1
318.378	2.008	320.386	3.219112481772738	draw_card	2.008	columbia_card_task_fmri	9.0	0.9333333333333332	89.0	-95.0	0.0666666666666666	16.0	2.0	1.0	-5.997664540463418	2.008	2.0	stim	poldrack-single-stim	s643	False	0
321.144	1.5	320.393	n/a	-1.0	2.25	columbia_card_task_fmri	n/a	n/a	-1.0	n/a	n/a	n/a	n/a	n/a	n/a	n/a	n/a	ITI	poldrack-single-stim	s643	False	0
322.647	2.395	325.042	5.214945815106071	draw_card	2.395	columbia_card_task_fmri	11.0	0.9375	89.0	-100.0	0.0625	16.0	1.0	1.0	-5.071882030821094	2.395	n/a	stim	poldrack-single-stim	s643	False	1
325.045	0.861	325.906	4.752445815106071	end_round	0.861	columbia_card_task_fmri	11.0	0.9333333333333332	71.0	-100.0	0.0666666666666666	16.0	2.0	1.0	-4.253169805846145	0.861	1.0	stim	poldrack-single-stim	s643	False	1
326.664	1.5	325.913	n/a	-1.0	2.522	columbia_card_task_fmri	n/a	n/a	-1.0	n/a	n/a	n/a	n/a	n/a	n/a	n/a	n/a	ITI	poldrack-single-stim	s643	False	0
328.441	2.388	330.829	5.777445815106071	draw_card	2.388	columbia_card_task_fmri	16.0	0.875	89.0	-75.0	0.125	16.0	1.0	2.0	-1.8479293210504368	2.388	n/a	stim	poldrack-single-stim	s643	False	1
330.832	2.256	333.088	5.019112481772738	draw_card	2.256	columbia_card_task_fmri	16.0	0.8666666666666667	89.0	-75.0	0.1333333333333333	16.0	2.0	2.0	-1.00989632651644	2.256	2.0	stim	poldrack-single-stim	s643	False	0
333.846	1.5	333.095	n/a	-1.0	2.454	columbia_card_task_fmri	n/a	n/a	-1.0	n/a	n/a	n/a	n/a	n/a	n/a	n/a	n/a	ITI	poldrack-single-stim	s643	False	0
335.553	4.877	340.43	6.027445815106071	draw_card	4.877	columbia_card_task_fmri	17.0	0.875	89.0	-80.0	0.125	16.0	1.0	2.0	0.1350207043868749	4.877	n/a	stim	poldrack-single-stim	s643	False	1
340.434	2.403	342.837	5.219112481772739	draw_card	2.403	columbia_card_task_fmri	17.0	0.8666666666666667	89.0	-80.0	0.1333333333333333	16.0	2.0	2.0	1.0283849115611758	2.403	n/a	stim	poldrack-single-stim	s643	False	1
342.841	3.104	345.945	4.295302957963217	draw_card	3.104	columbia_card_task_fmri	17.0	0.8571428571428572	89.0	-80.0	0.1428571428571428	16.0	3.0	2.0	1.9970801001195329	3.104	n/a	stim	poldrack-single-stim	s643	False	1
345.948	0.828	346.776	3.2293688920291475	end_round	0.828	columbia_card_task_fmri	17.0	0.8461538461538461	71.0	-80.0	0.1538461538461538	16.0	4.0	2.0	3.051279253426948	0.828	3.0	stim	poldrack-single-stim	s643	False	1
347.535	1.5	346.784	n/a	-1.0	2.25	columbia_card_task_fmri	n/a	n/a	-1.0	n/a	n/a	n/a	n/a	n/a	n/a	n/a	n/a	ITI	poldrack-single-stim	s643	False	0
360.05	2.163	362.213	0.3191124817727386	draw_card	2.163	columbia_card_task_fmri	13.0	0.8333333333333334	89.0	-70.0	0.1666666666666666	6.0	1.0	1.0	-1.0116731208896077	2.163	n/a	stim	poldrack-single-stim	s643	False	1
362.216	1.3	363.516	-2.447554184893929	draw_card	1.3	columbia_card_task_fmri	13.0	0.8	89.0	-70.0	0.2	6.0	2.0	1.0	1.2545882159251462	1.3	n/a	stim	poldrack-single-stim	s643	False	1
363.519	0.817	364.336	-6.597554184893929	end_round	0.817	columbia_card_task_fmri	13.0	0.75	71.0	-70.0	0.25	6.0	3.0	1.0	3.9931188052850217	0.817	2.0	stim	poldrack-single-stim	s643	False	1
365.095	1.5	364.344	n/a	-1.0	2.454	columbia_card_task_fmri	n/a	n/a	-1.0	n/a	n/a	n/a	n/a	n/a	n/a	n/a	n/a	ITI	poldrack-single-stim	s643	False	0
366.802	2.464	369.266	0.3191124817727386	draw_card	2.464	columbia_card_task_fmri	15.0	0.8333333333333334	89.0	-80.0	0.1666666666666666	6.0	1.0	1.0	3.4577535182913905	2.464	n/a	stim	poldrack-single-stim	s643	False	1
369.27	0.862	370.132	-2.847554184893929	draw_card	0.862	columbia_card_task_fmri	15.0	0.8	89.0	-80.0	0.2	6.0	2.0	1.0	6.0520636554673	0.862	n/a	stim	poldrack-single-stim	s643	False	1
370.136	1.824	371.96	-7.597554184893929	draw_card	1.824	columbia_card_task_fmri	15.0	0.75	89.0	-80.0	0.25	6.0	3.0	1.0	9.186938867464818	1.824	n/a	stim	poldrack-single-stim	s643	False	1
371.962	0.865	372.827	-15.514220851560594	end_round	0.865	columbia_card_task_fmri	15.0	0.6666666666666667	71.0	-80.0	0.3333333333333333	6.0	4.0	1.0	12.832847659641727	0.865	3.0	stim	poldrack-single-stim	s643	False	1
373.584	1.5	372.833	n/a	-1.0	2.454	columbia_card_task_fmri	n/a	n/a	-1.0	n/a	n/a	n/a	n/a	n/a	n/a	n/a	n/a	ITI	poldrack-single-stim	s643	False	0
375.293	2.399	377.692	1.9857791484394047	draw_card	2.399	columbia_card_task_fmri	16.0	0.8333333333333334	89.0	-75.0	0.1666666666666666	6.0	1.0	1.0	1.967865314623012	2.399	n/a	stim	poldrack-single-stim	s643	False	1
377.694	1.61	379.304	-1.0475541848939285	draw_card	1.61	columbia_card_task_fmri	16.0	0.8	89.0	-75.0	0.2	6.0	2.0	1.0	4.452831252396976	1.61	n/a	stim	poldrack-single-stim	s643	False	1
379.308	2.655	381.963	-5.597554184893929	draw_card	2.655	columbia_card_task_fmri	16.0	0.75	89.0	-75.0	0.25	6.0	3.0	1.0	7.455597210448303	2.655	n/a	stim	poldrack-single-stim	s643	False	1
381.966	0.609	382.575	-13.180887518227262	end_round	0.609	columbia_card_task_fmri	16.0	0.6666666666666667	71.0	-75.0	0.3333333333333333	6.0	4.0	1.0	10.947881035398623	0.609	3.0	stim	poldrack-single-stim	s643	False	1
383.332	1.5	382.581	n/a	-1.0	2.522	columbia_card_task_fmri	n/a	n/a	-1.0	n/a	n/a	n/a	n/a	n/a	n/a	n/a	n/a	ITI	poldrack-single-stim	s643	False	0
385.108	1.964	387.072	3.152445815106071	draw_card	1.964	columbia_card_task_fmri	21.0	0.75	89.0	-55.0	0.25	8.0	1.0	2.0	0.9637302886833156	1.964	n/a	stim	poldrack-single-stim	s643	False	1
387.076	1.533	388.609	0.4381601008203573	draw_card	1.533	columbia_card_task_fmri	21.0	0.7142857142857143	89.0	-55.0	0.2857142857142857	8.0	2.0	2.0	2.387228862075069	1.533	n/a	stim	poldrack-single-stim	s643	False	1
388.613	1.394	390.007	-3.18088751822726	end_round	1.394	columbia_card_task_fmri	21.0	0.6666666666666667	71.0	-55.0	0.3333333333333333	8.0	3.0	2.0	3.879866521242256	1.394	2.0	stim	poldrack-single-stim	s643	False	1
390.764	1.5	390.013	n/a	-1.0	2.454	columbia_card_task_fmri	n/a	n/a	-1.0	n/a	n/a	n/a	n/a	n/a	n/a	n/a	n/a	ITI	poldrack-single-stim	s643	False	0
392.472	1.969	394.441	4.402445815106071	draw_card	1.969	columbia_card_task_fmri	26.0	0.75	89.0	-65.0	0.25	8.0	1.0	2.0	7.455597210448303	1.969	1.0	stim	poldrack-single-stim	s643	False	0
395.199	1.5	394.448	n/a	-1.0	2.658	columbia_card_task_fmri	n/a	n/a	-1.0	n/a	n/a	n/a	n/a	n/a	n/a	n/a	n/a	ITI	poldrack-single-stim	s643	False	0
397.112	2.755	399.867	-0.5142208515605953	draw_card	2.755	columbia_card_task_fmri	15.0	0.7777777777777778	89.0	-60.0	0.2222222222222222	9.0	1.0	2.0	-0.7636393039538873	2.755	n/a	stim	poldrack-single-stim	s643	False	1
399.87	1.233	401.103	-2.597554184893929	draw_card	1.233	columbia_card_task_fmri	15.0	0.75	89.0	-60.0	0.25	9.0	2.0	2.0	0.5309863878515486	1.233	n/a	stim	poldrack-single-stim	s643	False	1
401.107	1.942	403.049	-5.276125613465356	draw_card	1.942	columbia_card_task_fmri	15.0	0.7142857142857143	89.0	-60.0	0.2857142857142857	9.0	3.0	2.0	1.9357325798215184	1.942	n/a	stim	poldrack-single-stim	s643	False	1
403.054	0.891	403.945	-8.847554184893927	end_round	0.891	columbia_card_task_fmri	15.0	0.6666666666666667	71.0	-60.0	0.3333333333333333	9.0	4.0	2.0	3.408708945915436	0.891	3.0	stim	poldrack-single-stim	s643	False	1
404.703	1.5	403.952	n/a	-1.0	2.386	columbia_card_task_fmri	n/a	n/a	-1.0	n/a	n/a	n/a	n/a	n/a	n/a	n/a	n/a	ITI	poldrack-single-stim	s643	False	0
406.344	2.734	409.078	3.852445815106072	draw_card	2.734	columbia_card_task_fmri	13.0	0.9	89.0	-90.0	0.1	10.0	1.0	1.0	-1.0439244102048129	2.734	n/a	stim	poldrack-single-stim	s643	False	1
409.082	1.0	410.082	2.708001370661626	end_round	1.0	columbia_card_task_fmri	13.0	0.8888888888888888	71.0	-90.0	0.1111111111111111	10.0	2.0	1.0	0.4248778476358552	1.0	1.0	stim	poldrack-single-stim	s643	False	1
410.838	1.5	410.087	n/a	-1.0	2.522	columbia_card_task_fmri	n/a	n/a	-1.0	n/a	n/a	n/a	n/a	n/a	n/a	n/a	n/a	ITI	poldrack-single-stim	s643	False	0
412.616	3.231	415.847	5.152445815106071	draw_card	3.231	columbia_card_task_fmri	15.0	0.9	89.0	-95.0	0.1	10.0	1.0	1.0	1.054709329931086	3.231	n/a	stim	poldrack-single-stim	s643	False	1
415.85	1.796	417.646	3.930223592883848	draw_card	1.796	columbia_card_task_fmri	15.0	0.8888888888888888	89.0	-95.0	0.1111111111111111	10.0	2.0	1.0	2.6234612745382933	1.796	n/a	stim	poldrack-single-stim	s643	False	1
417.65	3.483	421.133	2.402445815106071	draw_card	3.483	columbia_card_task_fmri	15.0	0.875	89.0	-95.0	0.125	10.0	3.0	1.0	4.431922262451721	3.483	n/a	stim	poldrack-single-stim	s643	False	1
421.137	1.111	422.248	0.4381601008203573	end_round	1.111	columbia_card_task_fmri	15.0	0.8571428571428572	71.0	-95.0	0.1428571428571428	10.0	4.0	1.0	6.543822119421122	1.111	3.0	stim	poldrack-single-stim	s643	False	1
423.006	1.5	422.255	n/a	-1.0	2.59	columbia_card_task_fmri	n/a	n/a	-1.0	n/a	n/a	n/a	n/a	n/a	n/a	n/a	n/a	ITI	poldrack-single-stim	s643	False	0
424.851	2.166	427.017	0.9524458151060716	draw_card	2.166	columbia_card_task_fmri	16.0	0.8	89.0	-65.0	0.2	10.0	1.0	2.0	0.4550816349734745	2.166	n/a	stim	poldrack-single-stim	s643	False	1
427.021	1.28	428.301	-0.8475541848939274	draw_card	1.28	columbia_card_task_fmri	16.0	0.7777777777777778	89.0	-65.0	0.2222222222222222	10.0	2.0	2.0	1.7292228606022135	1.28	n/a	stim	poldrack-single-stim	s643	False	1
428.304	4.411	432.715	-3.097554184893929	draw_card	4.411	columbia_card_task_fmri	16.0	0.75	89.0	-65.0	0.25	10.0	3.0	2.0	3.127549264349774	4.411	n/a	stim	poldrack-single-stim	s643	False	1
432.718	1.064	433.782	-5.99041132775107	end_round	1.064	columbia_card_task_fmri	16.0	0.7142857142857143	71.0	-65.0	0.2857142857142857	10.0	4.0	2.0	4.644805632006154	1.064	3.0	stim	poldrack-single-stim	s643	False	1
434.54	1.5	433.789	n/a	-1.0	2.386	columbia_card_task_fmri	n/a	n/a	-1.0	n/a	n/a	n/a	n/a	n/a	n/a	n/a	n/a	ITI	poldrack-single-stim	s643	False	0
436.181	2.334	438.515	-0.3475541848939292	draw_card	2.334	columbia_card_task_fmri	7.0	0.9166666666666666	89.0	-95.0	0.0833333333333333	12.0	1.0	1.0	-3.750551169064295	2.334	n/a	stim	poldrack-single-stim	s643	False	1
438.519	1.129	439.648	-1.1202814576212026	draw_card	1.129	columbia_card_task_fmri	7.0	0.9090909090909092	89.0	-95.0	0.0909090909090909	12.0	2.0	1.0	-2.61983154765473	1.129	n/a	stim	poldrack-single-stim	s643	False	1
439.652	1.099	440.751	-2.0475541848939294	end_round	1.099	columbia_card_task_fmri	7.0	0.9	71.0	-95.0	0.1	12.0	3.0	1.0	-1.3437139378079266	1.099	2.0	stim	poldrack-single-stim	s643	False	1
441.51	1.5	440.759	n/a	-1.0	2.59	columbia_card_task_fmri	n/a	n/a	-1.0	n/a	n/a	n/a	n/a	n/a	n/a	n/a	n/a	ITI	poldrack-single-stim	s643	False	0
443.356	2.388	445.744	0.3191124817727386	draw_card	2.388	columbia_card_task_fmri	14.0	0.8333333333333334	89.0	-75.0	0.1666666666666666	12.0	1.0	2.0	1.222948956296591	2.388	n/a	stim	poldrack-single-stim	s643	False	1
445.747	1.982	447.729	-1.0293723667121126	draw_card	1.982	columbia_card_task_fmri	14.0	0.8181818181818181	89.0	-75.0	0.1818181818181818	12.0	2.0	2.0	2.3807523047932406	1.982	n/a	stim	poldrack-single-stim	s643	False	1
447.733	2.184	449.917	-2.647554184893928	draw_card	2.184	columbia_card_task_fmri	14.0	0.8	89.0	-75.0	0.2	12.0	3.0	2.0	3.653240905175025	2.184	3.0	stim	poldrack-single-stim	s643	False	0
450.673	1.5	449.922	n/a	-1.0	2.318	columbia_card_task_fmri	n/a	n/a	-1.0	n/a	n/a	n/a	n/a	n/a	n/a	n/a	n/a	ITI	poldrack-single-stim	s643	False	0
452.246	1.601	453.847	1.9857791484394047	draw_card	1.601	columbia_card_task_fmri	15.0	0.8333333333333334	89.0	-70.0	0.1666666666666666	12.0	1.0	2.0	-0.2668217536193253	1.601	n/a	stim	poldrack-single-stim	s643	False	1
453.85	1.7	455.55	0.697900360560614	draw_card	1.7	columbia_card_task_fmri	15.0	0.8181818181818181	89.0	-70.0	0.1818181818181818	12.0	2.0	2.0	0.838883438777188	1.7	2.0	stim	poldrack-single-stim	s643	False	0
456.309	1.5	455.558	n/a	-1.0	2.25	columbia_card_task_fmri	n/a	n/a	-1.0	n/a	n/a	n/a	n/a	n/a	n/a	n/a	n/a	ITI	poldrack-single-stim	s643	False	0
457.813	2.915	460.728	-0.0475541848939284	draw_card	2.915	columbia_card_task_fmri	16.0	0.8	89.0	-70.0	0.2	15.0	1.0	3.0	2.45389108072056	2.915	n/a	stim	poldrack-single-stim	s643	False	1
460.732	1.021	461.753	-1.276125613465358	draw_card	1.021	columbia_card_task_fmri	16.0	0.7857142857142857	89.0	-70.0	0.2142857142857142	15.0	2.0	3.0	3.341433371433851	1.021	n/a	stim	poldrack-single-stim	s643	False	1
461.757	2.431	464.188	-2.693708031047776	draw_card	2.431	columbia_card_task_fmri	16.0	0.7692307692307692	89.0	-70.0	0.2307692307692307	15.0	3.0	3.0	4.286868596688052	2.431	n/a	stim	poldrack-single-stim	s643	False	1
464.191	3.146	467.337	-4.347554184893929	draw_card	3.146	columbia_card_task_fmri	16.0	0.75	89.0	-70.0	0.25	15.0	4.0	3.0	5.291512842707931	3.146	n/a	stim	poldrack-single-stim	s643	False	1
467.341	1.299	468.64	-6.302099639439383	end_round	1.299	columbia_card_task_fmri	16.0	0.7272727272727273	71.0	-70.0	0.2727272727272727	15.0	5.0	3.0	6.353038704451997	1.299	4.0	stim	poldrack-single-stim	s643	False	1
469.398	1.5	468.647	n/a	-1.0	2.454	columbia_card_task_fmri	n/a	n/a	-1.0	n/a	n/a	n/a	n/a	n/a	n/a	n/a	n/a	ITI	poldrack-single-stim	s643	False	0
471.109	3.901	475.01	0.3399458151060708	draw_card	3.901	columbia_card_task_fmri	14.0	0.8125	89.0	-65.0	0.1875	16.0	1.0	3.0	-1.1092013130120826	3.901	n/a	stim	poldrack-single-stim	s643	False	1
475.014	2.919	477.933	-0.6475541848939281	draw_card	2.919	columbia_card_task_fmri	14.0	0.8	89.0	-65.0	0.2	16.0	2.0	3.0	-0.3443999870226726	2.919	n/a	stim	poldrack-single-stim	s643	False	1
477.937	2.171	480.108	-1.7761256134653562	draw_card	2.171	columbia_card_task_fmri	14.0	0.7857142857142857	89.0	-65.0	0.2142857142857142	16.0	3.0	3.0	0.4708180508907205	2.171	3.0	stim	poldrack-single-stim	s643	False	0
480.862	1.5	480.111	n/a	-1.0	3.27	columbia_card_task_fmri	n/a	n/a	-1.0	n/a	n/a	n/a	n/a	n/a	n/a	n/a	n/a	ITI	poldrack-single-stim	s643	False	0
483.386	2.017	485.403	0.0899458151060708	draw_card	2.017	columbia_card_task_fmri	16.0	0.8125	89.0	-75.0	0.1875	16.0	1.0	3.0	3.571709828234752	2.017	n/a	stim	poldrack-single-stim	s643	False	1
485.406	2.526	487.932	-1.0475541848939285	draw_card	2.526	columbia_card_task_fmri	16.0	0.8	89.0	-75.0	0.2	16.0	2.0	3.0	4.452831252396976	2.526	n/a	stim	poldrack-single-stim	s643	False	1
487.936	3.241	491.177	-2.3475541848939274	draw_card	3.241	columbia_card_task_fmri	16.0	0.7857142857142857	89.0	-75.0	0.2142857142857142	16.0	3.0	3.0	5.392029689594516	3.241	3.0	stim	poldrack-single-stim	s643	False	0
491.936	1.5	491.185	n/a	-1.0	2.25	columbia_card_task_fmri	n/a	n/a	-1.0	n/a	n/a	n/a	n/a	n/a	n/a	n/a	n/a	ITI	poldrack-single-stim	s643	False	0
493.441	3.236	496.677	4.352445815106072	draw_card	3.236	columbia_card_task_fmri	16.0	0.8666666666666667	89.0	-80.0	0.1333333333333333	15.0	1.0	2.0	0.6886598674581919	3.236	n/a	stim	poldrack-single-stim	s643	False	1
496.681	1.988	498.669	3.438160100820359	draw_card	1.988	columbia_card_task_fmri	16.0	0.8571428571428572	89.0	-80.0	0.1428571428571428	15.0	2.0	2.0	1.647356609715679	1.988	n/a	stim	poldrack-single-stim	s643	False	1
498.673	1.179	499.852	2.3832150458753008	end_round	1.179	columbia_card_task_fmri	16.0	0.8461538461538461	71.0	-80.0	0.1538461538461538	15.0	3.0	2.0	2.690675530345132	1.179	2.0	stim	poldrack-single-stim	s643	False	1
500.611	1.5	499.86	n/a	-1.0	2.25	columbia_card_task_fmri	n/a	n/a	-1.0	n/a	n/a	n/a	n/a	n/a	n/a	n/a	n/a	ITI	poldrack-single-stim	s643	False	0
502.115	2.374	504.489	5.219112481772739	draw_card	2.374	columbia_card_task_fmri	17.0	0.8666666666666667	89.0	-80.0	0.1333333333333333	15.0	1.0	2.0	1.0283849115611758	2.374	n/a	stim	poldrack-single-stim	s643	False	1
504.493	1.475	505.968	4.295302957963217	draw_card	1.475	columbia_card_task_fmri	17.0	0.8571428571428572	89.0	-80.0	0.1428571428571428	15.0	2.0	2.0	1.9970801001195329	1.475	n/a	stim	poldrack-single-stim	s643	False	1
505.972	2.359	508.331	3.2293688920291475	draw_card	2.359	columbia_card_task_fmri	17.0	0.8461538461538461	89.0	-80.0	0.1538461538461538	15.0	3.0	2.0	3.051279253426948	2.359	n/a	stim	poldrack-single-stim	s643	False	1
508.335	1.024	509.359	1.9857791484394065	end_round	1.024	columbia_card_task_fmri	17.0	0.8333333333333334	71.0	-80.0	0.1666666666666666	15.0	4.0	2.0	4.2027230779347065	1.024	3.0	stim	poldrack-single-stim	s643	False	1
510.116	1.5	509.365	n/a	-1.0	2.318	columbia_card_task_fmri	n/a	n/a	-1.0	n/a	n/a	n/a	n/a	n/a	n/a	n/a	n/a	ITI	poldrack-single-stim	s643	False	0
511.689	4.219	515.908	1.1524458151060708	draw_card	4.219	columbia_card_task_fmri	1.0	0.9375	89.0	-15.0	0.0625	16.0	1.0	1.0	-27.924599485297364	4.219	n/a	stim	poldrack-single-stim	s643	False	1
515.913	2.558	518.471	1.0857791484394042	draw_card	2.558	columbia_card_task_fmri	1.0	0.9333333333333332	89.0	-15.0	0.0666666666666666	16.0	2.0	1.0	-27.81125075692773	2.558	n/a	stim	poldrack-single-stim	s643	False	1
518.474	0.698	519.172	1.009588672248928	draw_card	0.698	columbia_card_task_fmri	1.0	0.9285714285714286	89.0	-15.0	0.0714285714285714	16.0	3.0	1.0	-27.68665521295607	0.698	n/a	stim	poldrack-single-stim	s643	False	1
519.176	0.861	520.037	0.92167658433684	draw_card	0.861	columbia_card_task_fmri	1.0	0.9230769230769232	89.0	-15.0	0.0769230769230769	16.0	4.0	1.0	-27.54888805322597	0.861	n/a	stim	poldrack-single-stim	s643	False	1
520.041	0.626	520.667	0.8191124817727374	draw_card	0.626	columbia_card_task_fmri	1.0	0.9166666666666666	89.0	-15.0	0.0833333333333333	16.0	5.0	1.0	-27.395540465547636	0.626	n/a	stim	poldrack-single-stim	s643	False	1
520.672	0.704	521.376	0.6979003605606161	draw_card	0.704	columbia_card_task_fmri	1.0	0.9090909090909092	89.0	-15.0	0.0909090909090909	16.0	6.0	1.0	-27.223556187735817	0.704	n/a	stim	poldrack-single-stim	s643	False	1
521.379	1.407	522.786	0.5524458151060708	draw_card	1.407	columbia_card_task_fmri	1.0	0.9	89.0	-15.0	0.1	16.0	7.0	1.0	-27.02899898969803	1.407	n/a	stim	poldrack-single-stim	s643	False	1
522.791	1.276	524.067	0.3746680373282931	draw_card	1.276	columbia_card_task_fmri	1.0	0.8888888888888888	89.0	-15.0	0.1111111111111111	16.0	8.0	1.0	-26.80671779321698	1.276	n/a	stim	poldrack-single-stim	s643	False	1
524.071	1.176	525.247	0.1524458151060708	draw_card	1.176	columbia_card_task_fmri	1.0	0.875	89.0	-15.0	0.125	16.0	9.0	1.0	-26.549862398170816	1.176	n/a	stim	poldrack-single-stim	s643	False	1
525.25	0.836	526.086	-0.1332684706082147	draw_card	0.836	columbia_card_task_fmri	1.0	0.8571428571428572	89.0	-15.0	0.1428571428571428	16.0	10.0	1.0	-26.249196571357786	0.836	n/a	stim	poldrack-single-stim	s643	False	1
526.091	1.733	527.824	-0.5142208515605957	draw_card	1.733	columbia_card_task_fmri	1.0	0.8333333333333334	89.0	-15.0	0.1666666666666666	16.0	11.0	1.0	-25.892213613012867	1.733	n/a	stim	poldrack-single-stim	s643	False	1
527.828	0.079	527.907	-1.0475541848939294	draw_card	0.079	columbia_card_task_fmri	1.0	0.8	89.0	-15.0	0.2	16.0	12.0	1.0	-25.46247522090276	0.079	n/a	stim	poldrack-single-stim	s643	False	1
527.913	3.42	531.333	-1.8475541848939288	end_round	3.42	columbia_card_task_fmri	1.0	0.75	71.0	-15.0	0.25	16.0	13.0	1.0	-24.94200889419705	3.42	12.0	stim	poldrack-single-stim	s643	False	1
532.09	1.5	531.339	n/a	-1.0	2.726	columbia_card_task_fmri	n/a	n/a	-1.0	n/a	n/a	n/a	n/a	n/a	n/a	n/a	n/a	ITI	poldrack-single-stim	s643	False	0
534.07	3.22	537.29	4.277445815106071	draw_card	3.22	columbia_card_task_fmri	10.0	0.9375	89.0	-100.0	0.0625	16.0	1.0	1.0	-5.313719119565555	3.22	n/a	stim	poldrack-single-stim	s643	False	1
537.294	1.046	538.34	3.8191124817727378	draw_card	1.046	columbia_card_task_fmri	10.0	0.9333333333333332	89.0	-100.0	0.0666666666666666	16.0	2.0	1.0	-4.502395883898295	1.046	n/a	stim	poldrack-single-stim	s643	False	1
538.344	0.948	539.292	3.295302957963215	draw_card	0.948	columbia_card_task_fmri	10.0	0.9285714285714286	89.0	-100.0	0.0714285714285714	16.0	3.0	1.0	-3.612645057565509	0.948	n/a	stim	poldrack-single-stim	s643	False	1
539.297	0.921	540.218	2.69090735356761	draw_card	0.921	columbia_card_task_fmri	10.0	0.9230769230769232	89.0	-100.0	0.0769230769230769	16.0	4.0	1.0	-2.631132072274859	0.921	n/a	stim	poldrack-single-stim	s643	False	1
540.222	1.831	542.053	1.9857791484394047	draw_card	1.831	columbia_card_task_fmri	10.0	0.9166666666666666	89.0	-100.0	0.0833333333333333	16.0	5.0	1.0	-1.5411791241249233	1.831	n/a	stim	poldrack-single-stim	s643	False	1
542.057	4.31	546.367	1.152445815106069	draw_card	4.31	columbia_card_task_fmri	10.0	0.9090909090909092	89.0	-100.0	0.0909090909090909	16.0	6.0	1.0	-0.3216385063290303	4.31	n/a	stim	poldrack-single-stim	s643	False	1
546.371	2.117	548.488	0.1524458151060708	draw_card	2.117	columbia_card_task_fmri	10.0	0.9	89.0	-100.0	0.1	16.0	7.0	1.0	1.054709329931086	2.117	7.0	stim	poldrack-single-stim	s643	False	0
549.244	1.5	548.493	n/a	-1.0	2.386	columbia_card_task_fmri	n/a	n/a	-1.0	n/a	n/a	n/a	n/a	n/a	n/a	n/a	n/a	ITI	poldrack-single-stim	s643	False	0
550.886	2.758	553.644	4.902445815106071	draw_card	2.758	columbia_card_task_fmri	15.0	0.875	89.0	-75.0	0.125	16.0	1.0	2.0	-2.178403336798578	2.758	n/a	stim	poldrack-single-stim	s643	False	1
553.648	2.506	556.154	4.152445815106071	draw_card	2.506	columbia_card_task_fmri	15.0	0.8666666666666667	89.0	-75.0	0.1333333333333333	16.0	2.0	2.0	-1.3495926877232345	2.506	n/a	stim	poldrack-single-stim	s643	False	1
556.159	2.03	558.189	3.295302957963215	draw_card	2.03	columbia_card_task_fmri	15.0	0.8571428571428572	89.0	-75.0	0.1428571428571428	16.0	3.0	2.0	-0.4508894030830532	2.03	n/a	stim	poldrack-single-stim	s643	False	1
558.193	1.858	560.051	2.306291968952224	draw_card	1.858	columbia_card_task_fmri	15.0	0.8461538461538461	89.0	-75.0	0.1538461538461538	16.0	4.0	2.0	0.5271452704231052	1.858	4.0	stim	poldrack-single-stim	s643	False	0
560.805	1.5	560.054	n/a	-1.0	2.318	columbia_card_task_fmri	n/a	n/a	-1.0	n/a	n/a	n/a	n/a	n/a	n/a	n/a	n/a	ITI	poldrack-single-stim	s643	False	0
562.377	1.613	563.99	5.152445815106071	draw_card	1.613	columbia_card_task_fmri	16.0	0.875	89.0	-80.0	0.125	16.0	1.0	2.0	-0.1954827902357863	1.613	1.0	stim	poldrack-single-stim	s643	False	0
564.749	1.5	563.998	n/a	-1.0	2.25	columbia_card_task_fmri	n/a	n/a	-1.0	n/a	n/a	n/a	n/a	n/a	n/a	n/a	n/a	ITI	poldrack-single-stim	s643	False	0
566.254	5.829	572.083	2.339945815106071	draw_card	5.829	columbia_card_task_fmri	4.0	0.6875	89.0	-5.0	0.3125	16.0	1.0	5.0	-27.637535849464943	5.829	n/a	stim	poldrack-single-stim	s643	False	1
572.088	1.132	573.22	2.1524458151060712	draw_card	1.132	columbia_card_task_fmri	4.0	0.6666666666666667	89.0	-5.0	0.3333333333333333	16.0	2.0	5.0	-27.56903066895724	1.132	2.0	stim	poldrack-single-stim	s643	False	0
573.98	1.5	573.229	n/a	-1.0	2.25	columbia_card_task_fmri	n/a	n/a	-1.0	n/a	n/a	n/a	n/a	n/a	n/a	n/a	n/a	ITI	poldrack-single-stim	s643	False	0
575.485	2.445	577.93	-0.5142208515605935	draw_card	2.445	columbia_card_task_fmri	14.0	0.8333333333333334	89.0	-80.0	0.1666666666666666	6.0	1.0	1.0	3.085274900020316	2.445	n/a	stim	poldrack-single-stim	s643	False	1
577.934	1.592	579.526	-3.647554184893928	draw_card	1.592	columbia_card_task_fmri	14.0	0.8	89.0	-80.0	0.2	6.0	2.0	1.0	5.652249434599746	1.592	2.0	stim	poldrack-single-stim	s643	False	0
580.286	1.5	579.535	n/a	-1.0	2.454	columbia_card_task_fmri	n/a	n/a	-1.0	n/a	n/a	n/a	n/a	n/a	n/a	n/a	n/a	ITI	poldrack-single-stim	s643	False	0
581.995	1.336	583.331	1.1524458151060708	draw_card	1.336	columbia_card_task_fmri	15.0	0.8333333333333334	89.0	-75.0	0.1666666666666666	6.0	1.0	1.0	1.595404695208131	1.336	n/a	stim	poldrack-single-stim	s643	False	1
583.334	1.135	584.469	-1.8475541848939288	draw_card	1.135	columbia_card_task_fmri	15.0	0.8	89.0	-75.0	0.2	6.0	2.0	1.0	4.053033804684944	1.135	n/a	stim	poldrack-single-stim	s643	False	1
584.474	1.344	585.818	-6.347554184893929	draw_card	1.344	columbia_card_task_fmri	15.0	0.75	89.0	-75.0	0.25	6.0	3.0	1.0	7.022771639189493	1.344	n/a	stim	poldrack-single-stim	s643	False	1
585.822	1.094	586.916	-13.847554184893928	end_round	1.094	columbia_card_task_fmri	15.0	0.6666666666666667	71.0	-75.0	0.3333333333333333	6.0	4.0	1.0	10.476648422480755	1.094	3.0	stim	poldrack-single-stim	s643	False	1
587.676	1.5	586.925	n/a	-1.0	2.454	columbia_card_task_fmri	n/a	n/a	-1.0	n/a	n/a	n/a	n/a	n/a	n/a	n/a	n/a	ITI	poldrack-single-stim	s643	False	0
589.385	2.748	592.133	2.8191124817727387	draw_card	2.748	columbia_card_task_fmri	16.0	0.8333333333333334	89.0	-70.0	0.1666666666666666	6.0	1.0	1.0	0.1056127229578933	2.748	n/a	stim	poldrack-single-stim	s643	False	1
592.137	1.87	594.007	-0.0475541848939284	draw_card	1.87	columbia_card_task_fmri	16.0	0.8	89.0	-70.0	0.2	6.0	2.0	1.0	2.45389108072056	1.87	n/a	stim	poldrack-single-stim	s643	False	1
594.012	1.141	595.153	-4.347554184893929	draw_card	1.141	columbia_card_task_fmri	16.0	0.75	89.0	-70.0	0.25	6.0	3.0	1.0	5.291512842707931	1.141	n/a	stim	poldrack-single-stim	s643	False	1
595.157	1.043	596.2	-11.514220851560594	end_round	1.043	columbia_card_task_fmri	16.0	0.6666666666666667	71.0	-70.0	0.3333333333333333	6.0	4.0	1.0	8.591757925974285	1.043	3.0	stim	poldrack-single-stim	s643	False	1
596.958	1.5	596.207	n/a	-1.0	2.522	columbia_card_task_fmri	n/a	n/a	-1.0	n/a	n/a	n/a	n/a	n/a	n/a	n/a	n/a	ITI	poldrack-single-stim	s643	False	0
598.736	4.937	603.673	3.402445815106071	draw_card	4.937	columbia_card_task_fmri	23.0	0.75	89.0	-60.0	0.25	8.0	1.0	2.0	3.9931188052850217	4.937	n/a	stim	poldrack-single-stim	s643	False	1
603.677	1.441	605.118	0.438160100820359	draw_card	1.441	columbia_card_task_fmri	23.0	0.7142857142857143	89.0	-60.0	0.2857142857142857	8.0	2.0	2.0	5.547876555737112	1.441	n/a	stim	poldrack-single-stim	s643	False	1
605.122	2.539	607.661	-3.514220851560593	draw_card	2.539	columbia_card_task_fmri	23.0	0.6666666666666667	89.0	-60.0	0.3333333333333333	8.0	3.0	2.0	7.178136046843505	2.539	n/a	stim	poldrack-single-stim	s643	False	1
607.665	1.077	608.742	-9.04755418489393	end_round	1.077	columbia_card_task_fmri	23.0	0.6	71.0	-60.0	0.4	8.0	4.0	2.0	8.712450257952206	1.077	3.0	stim	poldrack-single-stim	s643	False	1
609.499	1.5	608.748	n/a	-1.0	2.386	columbia_card_task_fmri	n/a	n/a	-1.0	n/a	n/a	n/a	n/a	n/a	n/a	n/a	n/a	ITI	poldrack-single-stim	s643	False	0
611.141	3.877	615.018	3.902445815106071	draw_card	3.877	columbia_card_task_fmri	27.0	0.75	89.0	-70.0	0.25	8.0	1.0	2.0	10.052631615730846	3.877	n/a	stim	poldrack-single-stim	s643	False	1
615.022	1.011	616.033	0.4381601008203555	draw_card	1.011	columbia_card_task_fmri	27.0	0.7142857142857143	89.0	-70.0	0.2857142857142857	8.0	2.0	2.0	11.869877281657304	1.011	2.0	stim	poldrack-single-stim	s643	False	0
616.791	1.5	616.04	n/a	-1.0	2.454	columbia_card_task_fmri	n/a	n/a	-1.0	n/a	n/a	n/a	n/a	n/a	n/a	n/a	n/a	ITI	poldrack-single-stim	s643	False	0
618.501	2.766	621.267	-0.8475541848939274	draw_card	2.766	columbia_card_task_fmri	16.0	0.7777777777777778	89.0	-65.0	0.2222222222222222	9.0	1.0	2.0	1.7292228606022135	2.766	n/a	stim	poldrack-single-stim	s643	False	1
621.272	1.651	622.923	-3.097554184893929	draw_card	1.651	columbia_card_task_fmri	16.0	0.75	89.0	-65.0	0.25	9.0	2.0	2.0	3.127549264349774	1.651	n/a	stim	poldrack-single-stim	s643	False	1
622.928	2.755	625.683	-5.99041132775107	draw_card	2.755	columbia_card_task_fmri	16.0	0.7142857142857143	89.0	-65.0	0.2857142857142857	9.0	3.0	2.0	4.644805632006154	2.755	3.0	stim	poldrack-single-stim	s643	False	0
626.44	1.5	625.689	n/a	-1.0	2.522	columbia_card_task_fmri	n/a	n/a	-1.0	n/a	n/a	n/a	n/a	n/a	n/a	n/a	n/a	ITI	poldrack-single-stim	s643	False	0
628.217	4.53	632.747	4.352445815106072	draw_card	4.53	columbia_card_task_fmri	13.0	0.9	89.0	-85.0	0.1	10.0	1.0	1.0	-2.542829142656849	4.53	n/a	stim	poldrack-single-stim	s643	False	1
632.75	0.694	633.444	3.263556926217181	draw_card	0.694	columbia_card_task_fmri	13.0	0.8888888888888888	89.0	-85.0	0.1111111111111111	10.0	2.0	1.0	-1.1454249173006588	0.694	n/a	stim	poldrack-single-stim	s643	False	1
633.449	1.544	634.993	1.9024458151060708	draw_card	1.544	columbia_card_task_fmri	13.0	0.875	89.0	-85.0	0.125	10.0	3.0	1.0	0.4655285911137525	1.544	n/a	stim	poldrack-single-stim	s643	False	1
634.997	2.317	637.314	0.1524458151060725	draw_card	2.317	columbia_card_task_fmri	13.0	0.8571428571428572	89.0	-85.0	0.1428571428571428	10.0	4.0	1.0	2.346807742393452	2.317	n/a	stim	poldrack-single-stim	s643	False	1
637.319	1.25	638.569	-2.1808875182272613	end_round	1.25	columbia_card_task_fmri	13.0	0.8333333333333334	71.0	-85.0	0.1666666666666666	10.0	5.0	1.0	4.575213768070526	1.25	4.0	stim	poldrack-single-stim	s643	False	1
639.329	1.5	638.578	n/a	-1.0	2.522	columbia_card_task_fmri	n/a	n/a	-1.0	n/a	n/a	n/a	n/a	n/a	n/a	n/a	n/a	ITI	poldrack-single-stim	s643	False	0
641.107	5.255	646.362	-0.6475541848939281	draw_card	5.255	columbia_card_task_fmri	14.0	0.8	89.0	-65.0	0.2	10.0	1.0	2.0	-0.3443999870226726	5.255	1.0	stim	poldrack-single-stim	s643	False	0
647.122	1.5	646.371	n/a	-1.0	2.59	columbia_card_task_fmri	n/a	n/a	-1.0	n/a	n/a	n/a	n/a	n/a	n/a	n/a	n/a	ITI	poldrack-single-stim	s643	False	0
648.969	2.463	651.432	0.7524458151060722	draw_card	2.463	columbia_card_task_fmri	17.0	0.8	89.0	-70.0	0.2	10.0	1.0	2.0	2.8536693774296538	2.463	1.0	stim	poldrack-single-stim	s643	False	0
652.192	1.5	651.441	n/a	-1.0	2.454	columbia_card_task_fmri	n/a	n/a	-1.0	n/a	n/a	n/a	n/a	n/a	n/a	n/a	n/a	ITI	poldrack-single-stim	s643	False	0
653.902	4.733	658.635	-0.5142208515605953	draw_card	4.733	columbia_card_task_fmri	13.0	0.8333333333333334	89.0	-75.0	0.1666666666666666	12.0	1.0	2.0	0.8504982640673973	4.733	n/a	stim	poldrack-single-stim	s643	False	1
658.64	1.398	660.038	-1.847554184893931	draw_card	1.398	columbia_card_task_fmri	13.0	0.8181818181818181	89.0	-75.0	0.1818181818181818	12.0	2.0	2.0	1.9952773430585893	1.398	2.0	stim	poldrack-single-stim	s643	False	0
660.795	1.5	660.044	n/a	-1.0	2.318	columbia_card_task_fmri	n/a	n/a	-1.0	n/a	n/a	n/a	n/a	n/a	n/a	n/a	n/a	ITI	poldrack-single-stim	s643	False	0
662.368	2.609	664.977	1.1524458151060726	draw_card	2.609	columbia_card_task_fmri	14.0	0.8333333333333334	89.0	-70.0	0.1666666666666666	12.0	1.0	2.0	-0.6392504379265027	2.609	n/a	stim	poldrack-single-stim	s643	False	1
664.983	1.238	666.221	-0.1202814576212043	draw_card	1.238	columbia_card_task_fmri	14.0	0.8181818181818181	89.0	-70.0	0.1818181818181818	12.0	2.0	2.0	0.4534297449369546	1.238	n/a	stim	poldrack-single-stim	s643	False	1
666.226	2.079	668.305	-1.647554184893928	draw_card	2.079	columbia_card_task_fmri	14.0	0.8	89.0	-70.0	0.2	12.0	3.0	2.0	1.6543503095627656	2.079	n/a	stim	poldrack-single-stim	s643	False	1
668.31	3.428	671.738	-3.5142208515605957	draw_card	3.428	columbia_card_task_fmri	14.0	0.7777777777777778	89.0	-70.0	0.2222222222222222	12.0	4.0	2.0	2.975738303953726	3.428	n/a	stim	poldrack-single-stim	s643	False	1
671.744	2.365	674.109	-5.847554184893929	end_round	2.365	columbia_card_task_fmri	14.0	0.75	71.0	-70.0	0.25	12.0	5.0	2.0	4.425911709937239	2.365	4.0	stim	poldrack-single-stim	s643	False	1
674.869	1.5	674.118	n/a	-1.0	2.25	columbia_card_task_fmri	n/a	n/a	-1.0	n/a	n/a	n/a	n/a	n/a	n/a	n/a	n/a	ITI	poldrack-single-stim	s643	False	0
676.373	1.436	677.809	1.1524458151060726	draw_card	1.436	columbia_card_task_fmri	16.0	0.8333333333333334	89.0	-80.0	0.1666666666666666	12.0	1.0	2.0	3.830236287006812	1.436	n/a	stim	poldrack-single-stim	s643	False	1
677.815	2.706	680.521	-0.302099639439386	draw_card	2.706	columbia_card_task_fmri	16.0	0.8181818181818181	89.0	-80.0	0.1818181818181818	12.0	2.0	2.0	5.0792050656167405	2.706	n/a	stim	poldrack-single-stim	s643	False	1
680.527	1.676	682.203	-2.0475541848939285	draw_card	1.676	columbia_card_task_fmri	16.0	0.8	89.0	-80.0	0.2	12.0	3.0	2.0	6.451881744093377	1.676	3.0	stim	poldrack-single-stim	s643	False	0
682.963	1.5	682.212	n/a	-1.0	2.658	columbia_card_task_fmri	n/a	n/a	-1.0	n/a	n/a	n/a	n/a	n/a	n/a	n/a	n/a	ITI	poldrack-single-stim	s643	False	0
