onset	duration	movement_onset	CTI	block_duration	correct	correct_response	cue	cue_switch	experiment_exp_id	key_press	response_time	stim_color	stim_number	switch_type	task	task_switch	trial_id	trial_type	worker_id	first_trial_of_block	junk
4.43	1.0	5.989	0.9	2.136	True	71.0	Magnitude	n/a	twobytwo	71.0	0.659	blue	4.0	task_switch	magnitude	switch	stim	poldrack-single-stim	s643	1	False
6.679	1.0	7.793	0.1	2.68	True	71.0	Magnitude	stay	twobytwo	71.0	1.014	blue	1.0	cue_stay	magnitude	stay	stim	poldrack-single-stim	s643	0	False
10.27	1.0	11.812	0.9	2.544	True	89.0	High-Low	switch	twobytwo	89.0	0.642	orange	8.0	cue_switch	magnitude	stay	stim	poldrack-single-stim	s643	0	False
12.925	1.0	13.738	0.1	2.272	True	71.0	Magnitude	switch	twobytwo	71.0	0.713	blue	3.0	cue_switch	magnitude	stay	stim	poldrack-single-stim	s643	0	False
15.307	1.0	16.158	0.1	2.272	True	71.0	High-Low	switch	twobytwo	71.0	0.751	blue	2.0	cue_switch	magnitude	stay	stim	poldrack-single-stim	s643	0	False
17.688	1.0	18.603	0.1	2.408	True	89.0	Color	n/a	twobytwo	89.0	0.815	blue	3.0	task_switch	color	switch	stim	poldrack-single-stim	s643	0	False
21.005	1.0	22.408	0.9	2.136	True	89.0	Color	stay	twobytwo	89.0	0.503	blue	9.0	cue_stay	color	stay	stim	poldrack-single-stim	s643	0	False
24.048	1.0	25.83	0.9	2.272	True	71.0	High-Low	n/a	twobytwo	71.0	0.882	orange	2.0	task_switch	magnitude	switch	stim	poldrack-single-stim	s643	0	False
27.228	1.0	28.773	0.9	2.0	True	89.0	Magnitude	switch	twobytwo	89.0	0.645	orange	7.0	cue_switch	magnitude	stay	stim	poldrack-single-stim	s643	0	False
29.338	1.0	30.129	0.1	2.136	True	89.0	High-Low	switch	twobytwo	89.0	0.691	blue	6.0	cue_switch	magnitude	stay	stim	poldrack-single-stim	s643	0	False
31.582	1.0	32.318	0.1	2.272	True	71.0	High-Low	stay	twobytwo	71.0	0.636	blue	4.0	cue_stay	magnitude	stay	stim	poldrack-single-stim	s643	0	False
34.766	1.0	36.23	0.9	2.0	False	71.0	Orange-Blue	n/a	twobytwo	89.0	0.564	orange	8.0	task_switch	color	switch	stim	poldrack-single-stim	s643	0	False
37.679	1.0	39.721	0.9	2.68	True	71.0	Magnitude	n/a	twobytwo	71.0	1.142	blue	3.0	task_switch	magnitude	switch	stim	poldrack-single-stim	s643	0	False
40.468	1.0	41.449	0.1	2.0	True	89.0	High-Low	switch	twobytwo	89.0	0.881	blue	7.0	cue_switch	magnitude	stay	stim	poldrack-single-stim	s643	0	False
42.578	1.0	43.457	0.1	2.0	False	89.0	Color	n/a	twobytwo	71.0	0.779	blue	1.0	task_switch	color	switch	stim	poldrack-single-stim	s643	0	False
45.489	1.0	46.997	0.9	2.0	True	89.0	Color	stay	twobytwo	89.0	0.608	blue	6.0	cue_stay	color	stay	stim	poldrack-single-stim	s643	0	False
47.6	1.0	48.432	0.1	2.272	True	89.0	High-Low	n/a	twobytwo	89.0	0.732	blue	9.0	task_switch	magnitude	switch	stim	poldrack-single-stim	s643	0	False
50.782	1.0	52.309	0.9	2.0	False	71.0	Color	n/a	twobytwo	89.0	0.627	orange	7.0	task_switch	color	switch	stim	poldrack-single-stim	s643	0	False
52.894	1.0	53.712	0.1	2.0	True	89.0	High-Low	n/a	twobytwo	89.0	0.718	blue	8.0	task_switch	magnitude	switch	stim	poldrack-single-stim	s643	0	False
55.802	1.0	57.4	0.9	2.0	True	71.0	Orange-Blue	n/a	twobytwo	71.0	0.698	orange	7.0	task_switch	color	switch	stim	poldrack-single-stim	s643	0	False
58.714	1.0	60.287	0.9	2.68	True	71.0	Orange-Blue	stay	twobytwo	71.0	0.673	orange	2.0	cue_stay	color	stay	stim	poldrack-single-stim	s643	0	False
61.506	1.0	62.656	0.1	2.0	True	89.0	Orange-Blue	stay	twobytwo	89.0	1.05	blue	2.0	cue_stay	color	stay	stim	poldrack-single-stim	s643	0	False
63.619	1.0	64.733	0.1	2.136	False	89.0	High-Low	n/a	twobytwo	71.0	1.014	blue	6.0	task_switch	magnitude	switch	stim	poldrack-single-stim	s643	0	False
66.666	1.0	68.343	0.9	2.408	False	71.0	Magnitude	switch	twobytwo	89.0	0.777	orange	1.0	cue_switch	magnitude	stay	stim	poldrack-single-stim	s643	0	False
69.985	1.0	71.786	0.9	2.136	False	71.0	Magnitude	stay	twobytwo	89.0	0.901	blue	4.0	cue_stay	magnitude	stay	stim	poldrack-single-stim	s643	0	False
72.232	1.0	73.121	0.1	2.0	True	71.0	Magnitude	stay	twobytwo	71.0	0.789	blue	4.0	cue_stay	magnitude	stay	stim	poldrack-single-stim	s643	0	False
75.143	1.0	76.642	0.9	2.0	True	89.0	Orange-Blue	n/a	twobytwo	89.0	0.599	blue	1.0	task_switch	color	switch	stim	poldrack-single-stim	s643	0	False
77.251	1.0	78.308	0.1	2.544	True	89.0	High-Low	n/a	twobytwo	89.0	0.957	blue	8.0	task_switch	magnitude	switch	stim	poldrack-single-stim	s643	0	False
79.906	1.0	80.634	0.1	2.136	True	89.0	High-Low	stay	twobytwo	89.0	0.628	blue	8.0	cue_stay	magnitude	stay	stim	poldrack-single-stim	s643	0	False
82.953	1.0	84.488	0.9	2.544	True	71.0	High-Low	stay	twobytwo	71.0	0.635	orange	3.0	cue_stay	magnitude	stay	stim	poldrack-single-stim	s643	0	False
86.402	1.0	87.78	0.9	2.68	True	71.0	Orange-Blue	n/a	twobytwo	71.0	0.478	orange	8.0	task_switch	color	switch	stim	poldrack-single-stim	s643	0	False
89.193	1.0	89.973	0.1	2.0	False	71.0	Color	switch	twobytwo	89.0	0.68	orange	8.0	cue_switch	color	stay	stim	poldrack-single-stim	s643	0	False
92.104	1.0	93.741	0.9	2.272	False	71.0	High-Low	n/a	twobytwo	89.0	0.737	blue	3.0	task_switch	magnitude	switch	stim	poldrack-single-stim	s643	0	False
95.287	1.0	97.594	0.9	3.088	False	89.0	Orange-Blue	n/a	twobytwo	71.0	1.407	blue	4.0	task_switch	color	switch	stim	poldrack-single-stim	s643	0	False
98.486	1.0	99.53	0.1	2.0	True	71.0	High-Low	n/a	twobytwo	71.0	0.944	orange	3.0	task_switch	magnitude	switch	stim	poldrack-single-stim	s643	0	False
100.598	1.0	101.563	0.1	2.136	False	71.0	High-Low	stay	twobytwo	89.0	0.865	blue	3.0	cue_stay	magnitude	stay	stim	poldrack-single-stim	s643	0	False
103.645	1.0	105.433	0.9	2.136	True	89.0	Color	n/a	twobytwo	89.0	0.888	blue	9.0	task_switch	color	switch	stim	poldrack-single-stim	s643	0	False
105.892	1.0	106.896	0.1	2.0	False	71.0	Color	stay	twobytwo	89.0	0.904	orange	2.0	cue_stay	color	stay	stim	poldrack-single-stim	s643	0	False
108.002	1.0	108.885	0.1	2.272	True	71.0	Orange-Blue	switch	twobytwo	71.0	0.783	orange	4.0	cue_switch	color	stay	stim	poldrack-single-stim	s643	0	False
110.384	1.0	111.268	0.1	2.0	True	89.0	Magnitude	n/a	twobytwo	89.0	0.784	blue	8.0	task_switch	magnitude	switch	stim	poldrack-single-stim	s643	0	False
112.496	1.0	113.304	0.1	2.136	True	71.0	Orange-Blue	n/a	twobytwo	71.0	0.708	orange	2.0	task_switch	color	switch	stim	poldrack-single-stim	s643	0	False
114.743	1.0	115.584	0.1	2.136	True	71.0	Magnitude	n/a	twobytwo	71.0	0.741	orange	3.0	task_switch	magnitude	switch	stim	poldrack-single-stim	s643	0	False
117.789	1.0	119.306	0.9	2.544	True	89.0	Magnitude	stay	twobytwo	89.0	0.617	orange	9.0	cue_stay	magnitude	stay	stim	poldrack-single-stim	s643	0	False
121.244	1.0	122.847	0.9	2.0	True	71.0	Color	n/a	twobytwo	71.0	0.703	orange	9.0	task_switch	color	switch	stim	poldrack-single-stim	s643	0	False
124.157	1.0	126.364	0.9	2.136	True	89.0	Color	stay	twobytwo	89.0	1.307	blue	4.0	cue_stay	color	stay	stim	poldrack-single-stim	s643	0	False
126.403	1.0	127.218	0.1	2.136	True	89.0	Magnitude	n/a	twobytwo	89.0	0.715	blue	9.0	task_switch	magnitude	switch	stim	poldrack-single-stim	s643	0	False
128.651	1.0	129.511	0.1	2.136	True	71.0	Orange-Blue	n/a	twobytwo	71.0	0.76	orange	1.0	task_switch	color	switch	stim	poldrack-single-stim	s643	0	False
131.697	1.0	133.598	0.9	2.0	True	71.0	High-Low	n/a	twobytwo	71.0	1.001	blue	3.0	task_switch	magnitude	switch	stim	poldrack-single-stim	s643	0	False
134.609	1.0	136.203	0.9	2.136	True	89.0	Color	n/a	twobytwo	89.0	0.694	blue	8.0	task_switch	color	switch	stim	poldrack-single-stim	s643	0	False
136.857	1.0	137.661	0.1	2.0	False	71.0	Color	stay	twobytwo	89.0	0.704	orange	3.0	cue_stay	color	stay	stim	poldrack-single-stim	s643	0	False
138.969	1.0	139.728	0.1	2.136	True	71.0	Orange-Blue	switch	twobytwo	71.0	0.659	orange	3.0	cue_switch	color	stay	stim	poldrack-single-stim	s643	0	False
141.215	1.0	142.564	0.1	2.816	False	71.0	Magnitude	n/a	twobytwo	89.0	1.249	blue	2.0	task_switch	magnitude	switch	stim	poldrack-single-stim	s643	0	False
144.943	1.0	146.623	0.9	2.136	True	71.0	Magnitude	stay	twobytwo	71.0	0.78	blue	1.0	cue_stay	magnitude	stay	stim	poldrack-single-stim	s643	0	False
147.991	1.0	149.85	0.9	2.0	False	71.0	Magnitude	stay	twobytwo	89.0	0.959	orange	3.0	cue_stay	magnitude	stay	stim	poldrack-single-stim	s643	0	False
150.901	1.0	152.553	0.9	2.0	True	71.0	Color	n/a	twobytwo	71.0	0.752	orange	8.0	task_switch	color	switch	stim	poldrack-single-stim	s643	0	False
153.009	1.0	153.66	0.1	2.272	True	71.0	Color	stay	twobytwo	71.0	0.551	orange	9.0	cue_stay	color	stay	stim	poldrack-single-stim	s643	0	False
155.391	1.0	156.275	0.1	2.0	True	89.0	High-Low	n/a	twobytwo	89.0	0.784	blue	6.0	task_switch	magnitude	switch	stim	poldrack-single-stim	s643	0	False
158.301	1.0	160.323	0.9	2.0	True	71.0	Orange-Blue	n/a	twobytwo	71.0	1.122	orange	8.0	task_switch	color	switch	stim	poldrack-single-stim	s643	0	False
161.21	1.0	162.642	0.9	2.0	True	89.0	Magnitude	n/a	twobytwo	89.0	0.532	orange	7.0	task_switch	magnitude	switch	stim	poldrack-single-stim	s643	0	False
164.121	1.0	165.912	0.9	2.408	True	71.0	Color	n/a	twobytwo	71.0	0.891	orange	2.0	task_switch	color	switch	stim	poldrack-single-stim	s643	0	False
166.637	1.0	167.412	0.1	2.272	True	71.0	Color	stay	twobytwo	71.0	0.675	orange	1.0	cue_stay	color	stay	stim	poldrack-single-stim	s643	0	False
169.821	1.0	171.503	0.9	2.136	False	71.0	High-Low	n/a	twobytwo	89.0	0.782	blue	4.0	task_switch	magnitude	switch	stim	poldrack-single-stim	s643	0	False
172.867	1.0	174.404	0.9	2.0	True	71.0	Magnitude	switch	twobytwo	71.0	0.637	orange	1.0	cue_switch	magnitude	stay	stim	poldrack-single-stim	s643	0	False
174.977	1.0	175.961	0.1	2.0	False	71.0	Orange-Blue	n/a	twobytwo	89.0	0.884	orange	9.0	task_switch	color	switch	stim	poldrack-single-stim	s643	0	False
177.889	1.0	179.902	0.9	2.136	True	89.0	High-Low	n/a	twobytwo	89.0	1.113	orange	8.0	task_switch	magnitude	switch	stim	poldrack-single-stim	s643	0	False
180.933	1.0	182.672	0.9	2.0	True	71.0	Color	n/a	twobytwo	71.0	0.839	orange	1.0	task_switch	color	switch	stim	poldrack-single-stim	s643	0	False
183.043	1.0	183.903	0.1	2.136	True	89.0	High-Low	n/a	twobytwo	89.0	0.76	orange	9.0	task_switch	magnitude	switch	stim	poldrack-single-stim	s643	0	False
186.091	1.0	187.549	0.9	2.408	True	71.0	High-Low	stay	twobytwo	71.0	0.558	orange	3.0	cue_stay	magnitude	stay	stim	poldrack-single-stim	s643	0	False
189.41	1.0	190.998	0.9	2.136	True	89.0	Color	n/a	twobytwo	89.0	0.688	blue	7.0	task_switch	color	switch	stim	poldrack-single-stim	s643	0	False
191.651	1.0	192.512	0.1	2.0	False	89.0	High-Low	n/a	twobytwo	71.0	0.761	orange	9.0	task_switch	magnitude	switch	stim	poldrack-single-stim	s643	0	False
193.762	1.0	194.731	0.1	2.136	False	89.0	Color	n/a	twobytwo	71.0	0.869	blue	2.0	task_switch	color	switch	stim	poldrack-single-stim	s643	0	False
196.007	1.0	196.866	0.1	2.272	True	89.0	Color	stay	twobytwo	89.0	0.759	blue	6.0	cue_stay	color	stay	stim	poldrack-single-stim	s643	0	False
199.191	1.0	200.951	0.9	2.0	True	89.0	Magnitude	n/a	twobytwo	89.0	0.86	orange	8.0	task_switch	magnitude	switch	stim	poldrack-single-stim	s643	0	False
201.296	1.0	202.259	0.1	2.408	False	89.0	Color	n/a	twobytwo	71.0	0.863	blue	4.0	task_switch	color	switch	stim	poldrack-single-stim	s643	0	False
203.816	1.0	204.675	0.1	2.0	False	89.0	Orange-Blue	switch	twobytwo	71.0	0.759	blue	3.0	cue_switch	color	stay	stim	poldrack-single-stim	s643	0	False
205.928	1.0	206.808	0.1	2.136	False	71.0	High-Low	n/a	twobytwo	89.0	0.78	orange	1.0	task_switch	magnitude	switch	stim	poldrack-single-stim	s643	0	False
208.176	1.0	209.591	0.1	2.408	True	71.0	Color	n/a	twobytwo	71.0	1.315	orange	3.0	task_switch	color	switch	stim	poldrack-single-stim	s643	0	False
210.695	1.0	211.488	0.1	2.136	True	89.0	High-Low	n/a	twobytwo	89.0	0.693	orange	9.0	task_switch	magnitude	switch	stim	poldrack-single-stim	s643	0	False
213.743	1.0	215.134	0.9	2.408	True	89.0	Orange-Blue	n/a	twobytwo	89.0	0.491	blue	2.0	task_switch	color	switch	stim	poldrack-single-stim	s643	0	False
217.061	1.0	218.954	0.9	2.136	True	71.0	High-Low	n/a	twobytwo	71.0	0.993	orange	2.0	task_switch	magnitude	switch	stim	poldrack-single-stim	s643	0	False
233.628	1.0	235.438	0.9	2.0	True	71.0	Magnitude	n/a	twobytwo	71.0	0.91	blue	4.0	task_switch	magnitude	switch	stim	poldrack-single-stim	s643	1	False
235.736	1.0	236.622	0.1	2.272	False	71.0	Magnitude	stay	twobytwo	89.0	0.786	blue	1.0	cue_stay	magnitude	stay	stim	poldrack-single-stim	s643	0	False
238.918	1.0	240.719	0.9	2.0	False	89.0	High-Low	switch	twobytwo	71.0	0.901	orange	8.0	cue_switch	magnitude	stay	stim	poldrack-single-stim	s643	0	False
241.03	1.0	242.354	0.1	2.272	True	71.0	Magnitude	switch	twobytwo	71.0	1.224	blue	3.0	cue_switch	magnitude	stay	stim	poldrack-single-stim	s643	0	False
243.411	1.0	244.212	0.1	2.272	True	71.0	High-Low	switch	twobytwo	71.0	0.701	blue	2.0	cue_switch	magnitude	stay	stim	poldrack-single-stim	s643	0	False
245.794	1.0	246.837	0.1	2.952	True	89.0	Color	n/a	twobytwo	89.0	0.943	blue	3.0	task_switch	color	switch	stim	poldrack-single-stim	s643	0	False
249.658	1.0	251.492	0.9	2.68	True	89.0	Color	stay	twobytwo	89.0	0.934	blue	9.0	cue_stay	color	stay	stim	poldrack-single-stim	s643	0	False
253.25	1.0	254.952	0.9	2.136	True	71.0	High-Low	n/a	twobytwo	71.0	0.802	orange	2.0	task_switch	magnitude	switch	stim	poldrack-single-stim	s643	0	False
256.297	1.0	257.866	0.9	2.272	True	89.0	Magnitude	switch	twobytwo	89.0	0.669	orange	7.0	cue_switch	magnitude	stay	stim	poldrack-single-stim	s643	0	False
258.68	1.0	259.585	0.1	2.272	True	89.0	High-Low	switch	twobytwo	89.0	0.805	blue	6.0	cue_switch	magnitude	stay	stim	poldrack-single-stim	s643	0	False
261.059	1.0	261.919	0.1	2.136	True	71.0	High-Low	stay	twobytwo	71.0	0.76	blue	4.0	cue_stay	magnitude	stay	stim	poldrack-single-stim	s643	0	False
264.107	1.0	265.652	0.9	2.408	True	71.0	Color	n/a	twobytwo	71.0	0.645	orange	8.0	task_switch	color	switch	stim	poldrack-single-stim	s643	0	False
267.426	1.0	269.412	0.9	2.136	True	71.0	High-Low	n/a	twobytwo	71.0	1.086	blue	3.0	task_switch	magnitude	switch	stim	poldrack-single-stim	s643	0	False
269.676	1.0	270.809	0.1	2.136	True	89.0	Magnitude	switch	twobytwo	89.0	1.033	blue	7.0	cue_switch	magnitude	stay	stim	poldrack-single-stim	s643	0	False
271.921	1.0	272.776	0.1	2.0	True	89.0	Color	n/a	twobytwo	89.0	0.755	blue	1.0	task_switch	color	switch	stim	poldrack-single-stim	s643	0	False
274.833	1.0	276.412	0.9	2.0	True	89.0	Color	stay	twobytwo	89.0	0.679	blue	6.0	cue_stay	color	stay	stim	poldrack-single-stim	s643	0	False
276.946	1.0	277.735	0.1	2.0	True	89.0	High-Low	n/a	twobytwo	89.0	0.689	blue	9.0	task_switch	magnitude	switch	stim	poldrack-single-stim	s643	0	False
279.856	1.0	281.446	0.9	2.0	True	71.0	Orange-Blue	n/a	twobytwo	71.0	0.69	orange	7.0	task_switch	color	switch	stim	poldrack-single-stim	s643	0	False
281.966	1.0	282.876	0.1	2.0	True	89.0	Magnitude	n/a	twobytwo	89.0	0.81	blue	8.0	task_switch	magnitude	switch	stim	poldrack-single-stim	s643	0	False
284.877	1.0	286.605	0.9	2.272	False	71.0	Color	n/a	twobytwo	89.0	0.828	orange	7.0	task_switch	color	switch	stim	poldrack-single-stim	s643	0	False
288.061	1.0	289.603	0.9	2.408	True	71.0	Color	stay	twobytwo	71.0	0.642	orange	2.0	cue_stay	color	stay	stim	poldrack-single-stim	s643	0	False
290.58	1.0	291.644	0.1	2.0	True	89.0	Color	stay	twobytwo	89.0	0.964	blue	2.0	cue_stay	color	stay	stim	poldrack-single-stim	s643	0	False
292.691	1.0	293.819	0.1	2.136	True	89.0	High-Low	n/a	twobytwo	89.0	1.028	blue	6.0	task_switch	magnitude	switch	stim	poldrack-single-stim	s643	0	False
295.736	1.0	297.29	0.9	2.0	True	71.0	Magnitude	switch	twobytwo	71.0	0.654	orange	1.0	cue_switch	magnitude	stay	stim	poldrack-single-stim	s643	0	False
298.648	1.0	300.341	0.9	2.136	False	71.0	Magnitude	stay	twobytwo	89.0	0.793	blue	4.0	cue_stay	magnitude	stay	stim	poldrack-single-stim	s643	0	False
300.892	1.0	302.026	0.1	2.544	True	71.0	Magnitude	stay	twobytwo	71.0	1.034	blue	4.0	cue_stay	magnitude	stay	stim	poldrack-single-stim	s643	0	False
304.348	1.0	306.179	0.9	2.68	True	89.0	Orange-Blue	n/a	twobytwo	89.0	0.931	blue	1.0	task_switch	color	switch	stim	poldrack-single-stim	s643	0	False
307.139	1.0	308.21	0.1	3.088	True	89.0	Magnitude	n/a	twobytwo	89.0	0.971	blue	8.0	task_switch	magnitude	switch	stim	poldrack-single-stim	s643	0	False
310.338	1.0	311.2	0.1	2.136	True	89.0	Magnitude	stay	twobytwo	89.0	0.762	blue	8.0	cue_stay	magnitude	stay	stim	poldrack-single-stim	s643	0	False
313.383	1.0	315.318	0.9	2.544	True	71.0	Magnitude	stay	twobytwo	71.0	1.035	orange	3.0	cue_stay	magnitude	stay	stim	poldrack-single-stim	s643	0	False
316.838	1.0	318.762	0.9	2.0	True	71.0	Orange-Blue	n/a	twobytwo	71.0	1.024	orange	8.0	task_switch	color	switch	stim	poldrack-single-stim	s643	0	False
318.95	1.0	320.439	0.1	2.136	True	71.0	Color	switch	twobytwo	71.0	1.389	orange	8.0	cue_switch	color	stay	stim	poldrack-single-stim	s643	0	False
321.999	1.0	323.679	0.9	2.0	True	71.0	High-Low	n/a	twobytwo	71.0	0.78	blue	3.0	task_switch	magnitude	switch	stim	poldrack-single-stim	s643	0	False
324.912	1.0	326.919	0.9	2.408	False	89.0	Color	n/a	twobytwo	71.0	1.107	blue	4.0	task_switch	color	switch	stim	poldrack-single-stim	s643	0	False
327.432	1.0	328.364	0.1	2.0	True	71.0	Magnitude	n/a	twobytwo	71.0	0.832	orange	3.0	task_switch	magnitude	switch	stim	poldrack-single-stim	s643	0	False
329.544	1.0	330.31	0.1	2.0	True	71.0	Magnitude	stay	twobytwo	71.0	0.666	blue	3.0	cue_stay	magnitude	stay	stim	poldrack-single-stim	s643	0	False
332.454	1.0	333.93	0.9	2.0	True	89.0	Color	n/a	twobytwo	89.0	0.576	blue	9.0	task_switch	color	switch	stim	poldrack-single-stim	s643	0	False
334.565	1.0	335.429	0.1	2.68	True	71.0	Color	stay	twobytwo	71.0	0.764	orange	2.0	cue_stay	color	stay	stim	poldrack-single-stim	s643	0	False
337.354	1.0	338.849	0.1	2.272	False	71.0	Orange-Blue	switch	twobytwo	89.0	1.395	orange	4.0	cue_switch	color	stay	stim	poldrack-single-stim	s643	0	False
339.737	1.0	340.73	0.1	2.408	True	89.0	High-Low	n/a	twobytwo	89.0	0.893	blue	8.0	task_switch	magnitude	switch	stim	poldrack-single-stim	s643	0	False
342.253	1.0	343.102	0.1	3.224	True	71.0	Color	n/a	twobytwo	71.0	0.749	orange	2.0	task_switch	color	switch	stim	poldrack-single-stim	s643	0	False
345.588	1.0	346.389	0.1	2.408	True	71.0	High-Low	n/a	twobytwo	71.0	0.701	orange	3.0	task_switch	magnitude	switch	stim	poldrack-single-stim	s643	0	False
348.906	1.0	350.782	0.9	2.816	False	89.0	High-Low	stay	twobytwo	71.0	0.976	orange	9.0	cue_stay	magnitude	stay	stim	poldrack-single-stim	s643	0	False
352.634	1.0	355.283	0.9	2.408	True	71.0	Orange-Blue	n/a	twobytwo	71.0	1.749	orange	9.0	task_switch	color	switch	stim	poldrack-single-stim	s643	0	False
355.954	1.0	358.288	0.9	2.136	True	89.0	Orange-Blue	stay	twobytwo	89.0	1.434	blue	4.0	cue_stay	color	stay	stim	poldrack-single-stim	s643	0	False
358.2	1.0	359.107	0.1	2.136	True	89.0	High-Low	n/a	twobytwo	89.0	0.807	blue	9.0	task_switch	magnitude	switch	stim	poldrack-single-stim	s643	0	False
360.443	1.0	361.495	0.1	2.0	True	71.0	Color	n/a	twobytwo	71.0	0.952	orange	1.0	task_switch	color	switch	stim	poldrack-single-stim	s643	0	False
363.354	1.0	365.318	0.9	2.0	False	71.0	High-Low	n/a	twobytwo	89.0	1.064	blue	3.0	task_switch	magnitude	switch	stim	poldrack-single-stim	s643	0	False
366.265	1.0	367.83	0.9	2.272	True	89.0	Orange-Blue	n/a	twobytwo	89.0	0.665	blue	8.0	task_switch	color	switch	stim	poldrack-single-stim	s643	0	False
368.649	1.0	369.583	0.1	2.408	True	71.0	Orange-Blue	stay	twobytwo	71.0	0.834	orange	3.0	cue_stay	color	stay	stim	poldrack-single-stim	s643	0	False
371.164	1.0	371.946	0.1	2.0	True	71.0	Color	switch	twobytwo	71.0	0.682	orange	3.0	cue_switch	color	stay	stim	poldrack-single-stim	s643	0	False
373.274	1.0	374.274	0.1	2.136	True	71.0	High-Low	n/a	twobytwo	71.0	0.9	blue	2.0	task_switch	magnitude	switch	stim	poldrack-single-stim	s643	0	False
376.321	1.0	378.349	0.9	2.0	True	71.0	High-Low	stay	twobytwo	71.0	1.128	blue	1.0	cue_stay	magnitude	stay	stim	poldrack-single-stim	s643	0	False
379.235	1.0	380.7	0.9	2.408	True	71.0	High-Low	stay	twobytwo	71.0	0.565	orange	3.0	cue_stay	magnitude	stay	stim	poldrack-single-stim	s643	0	False
382.556	1.0	383.487	0.9	2.272	False	71.0	Orange-Blue	n/a	twobytwo	89.0	0.031	orange	8.0	task_switch	color	switch	stim	poldrack-single-stim	s643	0	False
384.937	1.0	385.777	0.1	2.0	False	71.0	Orange-Blue	stay	twobytwo	89.0	0.74	orange	9.0	cue_stay	color	stay	stim	poldrack-single-stim	s643	0	False
387.045	1.0	387.952	0.1	2.272	False	89.0	High-Low	n/a	twobytwo	71.0	0.807	blue	6.0	task_switch	magnitude	switch	stim	poldrack-single-stim	s643	0	False
390.231	1.0	391.655	0.9	2.0	True	71.0	Color	n/a	twobytwo	71.0	0.524	orange	8.0	task_switch	color	switch	stim	poldrack-single-stim	s643	0	False
393.142	1.0	394.706	0.9	2.0	False	89.0	Magnitude	n/a	twobytwo	71.0	0.664	orange	7.0	task_switch	magnitude	switch	stim	poldrack-single-stim	s643	0	False
396.053	1.0	397.808	0.9	2.272	False	71.0	Color	n/a	twobytwo	89.0	0.855	orange	2.0	task_switch	color	switch	stim	poldrack-single-stim	s643	0	False
398.436	1.0	399.464	0.1	2.136	True	71.0	Color	stay	twobytwo	71.0	0.928	orange	1.0	cue_stay	color	stay	stim	poldrack-single-stim	s643	0	False
401.483	1.0	403.236	0.9	2.0	False	71.0	Magnitude	n/a	twobytwo	89.0	0.853	blue	4.0	task_switch	magnitude	switch	stim	poldrack-single-stim	s643	0	False
404.388	1.0	406.029	0.9	2.0	True	71.0	High-Low	switch	twobytwo	71.0	0.741	orange	1.0	cue_switch	magnitude	stay	stim	poldrack-single-stim	s643	0	False
406.498	1.0	407.412	0.1	2.0	False	71.0	Color	n/a	twobytwo	89.0	0.814	orange	9.0	task_switch	color	switch	stim	poldrack-single-stim	s643	0	False
409.406	1.0	411.847	0.9	2.0	True	89.0	Magnitude	n/a	twobytwo	89.0	1.541	orange	8.0	task_switch	magnitude	switch	stim	poldrack-single-stim	s643	0	False
412.316	1.0	414.1	0.9	2.0	True	71.0	Orange-Blue	n/a	twobytwo	71.0	0.884	orange	1.0	task_switch	color	switch	stim	poldrack-single-stim	s643	0	False
414.427	1.0	415.57	0.1	2.136	True	89.0	High-Low	n/a	twobytwo	89.0	1.043	orange	9.0	task_switch	magnitude	switch	stim	poldrack-single-stim	s643	0	False
417.474	1.0	419.758	0.9	2.0	True	71.0	High-Low	stay	twobytwo	71.0	1.384	orange	3.0	cue_stay	magnitude	stay	stim	poldrack-single-stim	s643	0	False
420.384	1.0	422.26	0.9	2.0	True	89.0	Orange-Blue	n/a	twobytwo	89.0	0.976	blue	7.0	task_switch	color	switch	stim	poldrack-single-stim	s643	0	False
422.495	1.0	423.677	0.1	2.136	False	89.0	Magnitude	n/a	twobytwo	71.0	1.082	orange	9.0	task_switch	magnitude	switch	stim	poldrack-single-stim	s643	0	False
424.741	1.0	426.189	0.1	2.0	True	89.0	Orange-Blue	n/a	twobytwo	89.0	1.348	blue	2.0	task_switch	color	switch	stim	poldrack-single-stim	s643	0	False
426.853	1.0	427.724	0.1	2.136	True	89.0	Orange-Blue	stay	twobytwo	89.0	0.771	blue	6.0	cue_stay	color	stay	stim	poldrack-single-stim	s643	0	False
429.901	1.0	431.82	0.9	2.68	True	89.0	High-Low	n/a	twobytwo	89.0	1.019	orange	8.0	task_switch	magnitude	switch	stim	poldrack-single-stim	s643	0	False
432.69	1.0	433.61	0.1	2.272	False	89.0	Color	n/a	twobytwo	71.0	0.82	blue	4.0	task_switch	color	switch	stim	poldrack-single-stim	s643	0	False
435.072	1.0	436.512	0.1	2.136	True	89.0	Orange-Blue	switch	twobytwo	89.0	1.34	blue	3.0	cue_switch	color	stay	stim	poldrack-single-stim	s643	0	False
437.314	1.0	438.335	0.1	2.0	True	71.0	High-Low	n/a	twobytwo	71.0	0.921	orange	1.0	task_switch	magnitude	switch	stim	poldrack-single-stim	s643	0	False
439.426	1.0	440.619	0.1	2.136	False	71.0	Orange-Blue	n/a	twobytwo	89.0	1.093	orange	3.0	task_switch	color	switch	stim	poldrack-single-stim	s643	0	False
441.673	1.0	442.774	0.1	2.68	True	89.0	High-Low	n/a	twobytwo	89.0	1.001	orange	9.0	task_switch	magnitude	switch	stim	poldrack-single-stim	s643	0	False
445.266	1.0	447.008	0.9	2.272	False	89.0	Orange-Blue	n/a	twobytwo	71.0	0.842	blue	2.0	task_switch	color	switch	stim	poldrack-single-stim	s643	0	False
448.448	1.0	450.289	0.9	2.0	True	71.0	High-Low	n/a	twobytwo	71.0	0.941	orange	2.0	task_switch	magnitude	switch	stim	poldrack-single-stim	s643	0	False
464.884	1.0	466.577	0.9	2.0	True	71.0	Magnitude	n/a	twobytwo	71.0	0.793	blue	4.0	task_switch	magnitude	switch	stim	poldrack-single-stim	s643	1	False
466.996	1.0	467.794	0.1	2.136	True	71.0	Magnitude	stay	twobytwo	71.0	0.698	blue	1.0	cue_stay	magnitude	stay	stim	poldrack-single-stim	s643	0	False
470.044	1.0	471.931	0.9	2.0	True	89.0	High-Low	switch	twobytwo	89.0	0.987	orange	8.0	cue_switch	magnitude	stay	stim	poldrack-single-stim	s643	0	False
472.157	1.0	473.083	0.1	2.0	True	71.0	Magnitude	switch	twobytwo	71.0	0.826	blue	3.0	cue_switch	magnitude	stay	stim	poldrack-single-stim	s643	0	False
474.269	1.0	475.523	0.1	2.0	True	71.0	High-Low	switch	twobytwo	71.0	1.154	blue	2.0	cue_switch	magnitude	stay	stim	poldrack-single-stim	s643	0	False
476.382	1.0	477.447	0.1	2.272	True	89.0	Color	n/a	twobytwo	89.0	0.965	blue	3.0	task_switch	color	switch	stim	poldrack-single-stim	s643	0	False
479.568	1.0	481.291	0.9	2.408	True	89.0	Color	stay	twobytwo	89.0	0.823	blue	9.0	cue_stay	color	stay	stim	poldrack-single-stim	s643	0	False
482.888	1.0	484.728	0.9	2.0	True	71.0	High-Low	n/a	twobytwo	71.0	0.94	orange	2.0	task_switch	magnitude	switch	stim	poldrack-single-stim	s643	0	False
485.799	1.0	487.484	0.9	2.0	True	89.0	Magnitude	switch	twobytwo	89.0	0.785	orange	7.0	cue_switch	magnitude	stay	stim	poldrack-single-stim	s643	0	False
487.909	1.0	488.773	0.1	2.0	True	89.0	High-Low	switch	twobytwo	89.0	0.764	blue	6.0	cue_switch	magnitude	stay	stim	poldrack-single-stim	s643	0	False
490.019	1.0	490.846	0.1	2.272	True	71.0	High-Low	stay	twobytwo	71.0	0.727	blue	4.0	cue_stay	magnitude	stay	stim	poldrack-single-stim	s643	0	False
493.203	1.0	495.478	0.9	2.136	True	71.0	Color	n/a	twobytwo	71.0	1.375	orange	8.0	task_switch	color	switch	stim	poldrack-single-stim	s643	0	False
496.252	1.0	498.045	0.9	2.0	True	71.0	Magnitude	n/a	twobytwo	71.0	0.893	blue	3.0	task_switch	magnitude	switch	stim	poldrack-single-stim	s643	0	False
498.361	1.0	499.468	0.1	2.544	False	89.0	High-Low	switch	twobytwo	71.0	1.007	blue	7.0	cue_switch	magnitude	stay	stim	poldrack-single-stim	s643	0	False
501.018	1.0	501.926	0.1	2.272	False	89.0	Color	n/a	twobytwo	71.0	0.808	blue	1.0	task_switch	color	switch	stim	poldrack-single-stim	s643	0	False
504.203	1.0	505.737	0.9	2.272	True	89.0	Color	stay	twobytwo	89.0	0.634	blue	6.0	cue_stay	color	stay	stim	poldrack-single-stim	s643	0	False
506.587	1.0	507.683	0.1	2.0	True	89.0	High-Low	n/a	twobytwo	89.0	0.996	blue	9.0	task_switch	magnitude	switch	stim	poldrack-single-stim	s643	0	False
509.496	1.0	511.174	0.9	2.0	False	71.0	Orange-Blue	n/a	twobytwo	89.0	0.778	orange	7.0	task_switch	color	switch	stim	poldrack-single-stim	s643	0	False
511.609	1.0	512.93	0.1	2.136	True	89.0	High-Low	n/a	twobytwo	89.0	1.221	blue	8.0	task_switch	magnitude	switch	stim	poldrack-single-stim	s643	0	False
514.656	1.0	516.236	0.9	2.0	True	71.0	Orange-Blue	n/a	twobytwo	71.0	0.68	orange	7.0	task_switch	color	switch	stim	poldrack-single-stim	s643	0	False
517.568	1.0	519.391	0.9	2.136	True	71.0	Orange-Blue	stay	twobytwo	71.0	0.923	orange	2.0	cue_stay	color	stay	stim	poldrack-single-stim	s643	0	False
519.813	1.0	520.843	0.1	2.272	True	89.0	Orange-Blue	stay	twobytwo	89.0	0.93	blue	2.0	cue_stay	color	stay	stim	poldrack-single-stim	s643	0	False
522.196	1.0	523.486	0.1	2.136	True	89.0	Magnitude	n/a	twobytwo	89.0	1.19	blue	6.0	task_switch	magnitude	switch	stim	poldrack-single-stim	s643	0	False
525.244	1.0	527.3	0.9	2.272	True	71.0	High-Low	switch	twobytwo	71.0	1.156	orange	1.0	cue_switch	magnitude	stay	stim	poldrack-single-stim	s643	0	False
528.426	1.0	530.322	0.9	2.0	True	71.0	High-Low	stay	twobytwo	71.0	0.996	blue	4.0	cue_stay	magnitude	stay	stim	poldrack-single-stim	s643	0	False
530.535	1.0	531.517	0.1	2.816	True	71.0	High-Low	stay	twobytwo	71.0	0.882	blue	4.0	cue_stay	magnitude	stay	stim	poldrack-single-stim	s643	0	False
534.263	1.0	535.259	0.9	2.408	True	89.0	Orange-Blue	n/a	twobytwo	89.0	0.096	blue	1.0	task_switch	color	switch	stim	poldrack-single-stim	s643	0	False
536.782	1.0	537.711	0.1	2.0	False	89.0	Magnitude	n/a	twobytwo	71.0	0.829	blue	8.0	task_switch	magnitude	switch	stim	poldrack-single-stim	s643	0	False
538.893	1.0	539.592	0.1	2.544	False	89.0	Magnitude	stay	twobytwo	71.0	0.599	blue	8.0	cue_stay	magnitude	stay	stim	poldrack-single-stim	s643	0	False
542.348	1.0	544.272	0.9	2.136	True	71.0	Magnitude	stay	twobytwo	71.0	1.024	orange	3.0	cue_stay	magnitude	stay	stim	poldrack-single-stim	s643	0	False
545.396	1.0	547.413	0.9	2.0	True	71.0	Color	n/a	twobytwo	71.0	1.117	orange	8.0	task_switch	color	switch	stim	poldrack-single-stim	s643	0	False
547.508	1.0	548.412	0.1	2.0	True	71.0	Orange-Blue	switch	twobytwo	71.0	0.804	orange	8.0	cue_switch	color	stay	stim	poldrack-single-stim	s643	0	False
550.42	1.0	552.009	0.9	2.136	False	71.0	Magnitude	n/a	twobytwo	89.0	0.689	blue	3.0	task_switch	magnitude	switch	stim	poldrack-single-stim	s643	0	False
553.466	1.0	555.021	0.9	2.136	False	89.0	Color	n/a	twobytwo	71.0	0.655	blue	4.0	task_switch	color	switch	stim	poldrack-single-stim	s643	0	False
555.713	1.0	556.648	0.1	2.272	False	71.0	High-Low	n/a	twobytwo	89.0	0.835	orange	3.0	task_switch	magnitude	switch	stim	poldrack-single-stim	s643	0	False
558.097	1.0	559.258	0.1	3.224	True	71.0	High-Low	stay	twobytwo	71.0	1.061	blue	3.0	cue_stay	magnitude	stay	stim	poldrack-single-stim	s643	0	False
562.234	1.0	563.903	0.9	2.0	True	89.0	Color	n/a	twobytwo	89.0	0.769	blue	9.0	task_switch	color	switch	stim	poldrack-single-stim	s643	0	False
564.344	1.0	565.725	0.1	2.0	True	71.0	Color	stay	twobytwo	71.0	1.281	orange	2.0	cue_stay	color	stay	stim	poldrack-single-stim	s643	0	False
566.454	1.0	567.263	0.1	2.272	True	71.0	Orange-Blue	switch	twobytwo	71.0	0.709	orange	4.0	cue_switch	color	stay	stim	poldrack-single-stim	s643	0	False
568.838	1.0	569.827	0.1	2.136	True	89.0	Magnitude	n/a	twobytwo	89.0	0.889	blue	8.0	task_switch	magnitude	switch	stim	poldrack-single-stim	s643	0	False
571.086	1.0	572.331	0.1	2.0	True	71.0	Orange-Blue	n/a	twobytwo	71.0	1.145	orange	2.0	task_switch	color	switch	stim	poldrack-single-stim	s643	0	False
573.198	1.0	574.055	0.1	2.0	True	71.0	Magnitude	n/a	twobytwo	71.0	0.757	orange	3.0	task_switch	magnitude	switch	stim	poldrack-single-stim	s643	0	False
576.109	1.0	577.679	0.9	2.0	True	89.0	Magnitude	stay	twobytwo	89.0	0.67	orange	9.0	cue_stay	magnitude	stay	stim	poldrack-single-stim	s643	0	False
579.02	1.0	580.491	0.9	2.68	True	71.0	Color	n/a	twobytwo	71.0	0.571	orange	9.0	task_switch	color	switch	stim	poldrack-single-stim	s643	0	False
582.613	1.0	584.415	0.9	2.0	True	89.0	Color	stay	twobytwo	89.0	0.902	blue	4.0	cue_stay	color	stay	stim	poldrack-single-stim	s643	0	False
584.721	1.0	585.495	0.1	2.272	True	89.0	Magnitude	n/a	twobytwo	89.0	0.674	blue	9.0	task_switch	magnitude	switch	stim	poldrack-single-stim	s643	0	False
587.106	1.0	588.165	0.1	2.0	True	71.0	Color	n/a	twobytwo	71.0	0.959	orange	1.0	task_switch	color	switch	stim	poldrack-single-stim	s643	0	False
590.017	1.0	591.893	0.9	2.272	False	71.0	High-Low	n/a	twobytwo	89.0	0.976	blue	3.0	task_switch	magnitude	switch	stim	poldrack-single-stim	s643	0	False
593.2	1.0	595.021	0.9	2.952	True	89.0	Color	n/a	twobytwo	89.0	0.921	blue	8.0	task_switch	color	switch	stim	poldrack-single-stim	s643	0	False
596.265	1.0	597.058	0.1	2.0	True	71.0	Color	stay	twobytwo	71.0	0.693	orange	3.0	cue_stay	color	stay	stim	poldrack-single-stim	s643	0	False
598.377	1.0	599.08	0.1	2.0	True	71.0	Orange-Blue	switch	twobytwo	71.0	0.603	orange	3.0	cue_switch	color	stay	stim	poldrack-single-stim	s643	0	False
600.487	1.0	601.392	0.1	2.0	False	71.0	Magnitude	n/a	twobytwo	89.0	0.805	blue	2.0	task_switch	magnitude	switch	stim	poldrack-single-stim	s643	0	False
603.398	1.0	605.184	0.9	2.0	True	71.0	Magnitude	stay	twobytwo	71.0	0.886	blue	1.0	cue_stay	magnitude	stay	stim	poldrack-single-stim	s643	0	False
606.311	1.0	608.02	0.9	2.136	True	71.0	Magnitude	stay	twobytwo	71.0	0.809	orange	3.0	cue_stay	magnitude	stay	stim	poldrack-single-stim	s643	0	False
609.355	1.0	611.019	0.9	2.0	False	71.0	Orange-Blue	n/a	twobytwo	89.0	0.764	orange	8.0	task_switch	color	switch	stim	poldrack-single-stim	s643	0	False
611.466	1.0	612.455	0.1	2.0	True	71.0	Orange-Blue	stay	twobytwo	71.0	0.889	orange	9.0	cue_stay	color	stay	stim	poldrack-single-stim	s643	0	False
613.579	1.0	614.764	0.1	2.0	True	89.0	High-Low	n/a	twobytwo	89.0	1.085	blue	6.0	task_switch	magnitude	switch	stim	poldrack-single-stim	s643	0	False
616.49	1.0	618.266	0.9	2.272	True	71.0	Color	n/a	twobytwo	71.0	0.876	orange	8.0	task_switch	color	switch	stim	poldrack-single-stim	s643	0	False
619.673	1.0	621.436	0.9	2.136	False	89.0	High-Low	n/a	twobytwo	71.0	0.863	orange	7.0	task_switch	magnitude	switch	stim	poldrack-single-stim	s643	0	False
622.721	1.0	624.338	0.9	2.0	True	71.0	Color	n/a	twobytwo	71.0	0.717	orange	2.0	task_switch	color	switch	stim	poldrack-single-stim	s643	0	False
624.833	1.0	625.756	0.1	2.136	True	71.0	Color	stay	twobytwo	71.0	0.823	orange	1.0	cue_stay	color	stay	stim	poldrack-single-stim	s643	0	False
627.883	1.0	629.684	0.9	2.816	True	71.0	High-Low	n/a	twobytwo	71.0	0.901	blue	4.0	task_switch	magnitude	switch	stim	poldrack-single-stim	s643	0	False
631.612	1.0	633.433	0.9	2.408	True	71.0	Magnitude	switch	twobytwo	71.0	0.921	orange	1.0	cue_switch	magnitude	stay	stim	poldrack-single-stim	s643	0	False
634.132	1.0	635.024	0.1	2.0	False	71.0	Orange-Blue	n/a	twobytwo	89.0	0.792	orange	9.0	task_switch	color	switch	stim	poldrack-single-stim	s643	0	False
637.04	1.0	638.963	0.9	2.136	True	89.0	High-Low	n/a	twobytwo	89.0	1.023	orange	8.0	task_switch	magnitude	switch	stim	poldrack-single-stim	s643	0	False
640.087	1.0	641.842	0.9	2.136	True	71.0	Color	n/a	twobytwo	71.0	0.855	orange	1.0	task_switch	color	switch	stim	poldrack-single-stim	s643	0	False
642.333	1.0	643.257	0.1	2.136	True	89.0	High-Low	n/a	twobytwo	89.0	0.824	orange	9.0	task_switch	magnitude	switch	stim	poldrack-single-stim	s643	0	False
645.379	1.0	647.372	0.9	2.544	True	71.0	High-Low	stay	twobytwo	71.0	1.093	orange	3.0	cue_stay	magnitude	stay	stim	poldrack-single-stim	s643	0	False
648.834	1.0	650.525	0.9	2.136	True	89.0	Orange-Blue	n/a	twobytwo	89.0	0.791	blue	7.0	task_switch	color	switch	stim	poldrack-single-stim	s643	0	False
651.081	1.0	652.196	0.1	2.0	False	89.0	High-Low	n/a	twobytwo	71.0	1.015	orange	9.0	task_switch	magnitude	switch	stim	poldrack-single-stim	s643	0	False
653.19	1.0	654.019	0.1	2.0	False	89.0	Orange-Blue	n/a	twobytwo	71.0	0.729	blue	2.0	task_switch	color	switch	stim	poldrack-single-stim	s643	0	False
655.3	1.0	656.377	0.1	2.0	True	89.0	Orange-Blue	stay	twobytwo	89.0	0.977	blue	6.0	cue_stay	color	stay	stim	poldrack-single-stim	s643	0	False
658.211	1.0	660.08	0.9	2.0	True	89.0	Magnitude	n/a	twobytwo	89.0	0.969	orange	8.0	task_switch	magnitude	switch	stim	poldrack-single-stim	s643	0	False
660.319	1.0	661.365	0.1	2.136	False	89.0	Orange-Blue	n/a	twobytwo	71.0	0.946	blue	4.0	task_switch	color	switch	stim	poldrack-single-stim	s643	0	False
662.571	1.0	663.929	0.1	2.0	False	89.0	Color	switch	twobytwo	71.0	1.258	blue	3.0	cue_switch	color	stay	stim	poldrack-single-stim	s643	0	False
664.681	1.0	665.762	0.1	2.0	True	71.0	High-Low	n/a	twobytwo	71.0	0.981	orange	1.0	task_switch	magnitude	switch	stim	poldrack-single-stim	s643	0	False
666.793	1.0	668.04	0.1	2.0	False	71.0	Color	n/a	twobytwo	89.0	1.147	orange	3.0	task_switch	color	switch	stim	poldrack-single-stim	s643	0	False
668.906	1.0	670.253	0.1	2.136	False	89.0	High-Low	n/a	twobytwo	71.0	1.247	orange	9.0	task_switch	magnitude	switch	stim	poldrack-single-stim	s643	0	False
671.953	1.0	674.017	0.9	2.136	True	89.0	Color	n/a	twobytwo	89.0	1.164	blue	2.0	task_switch	color	switch	stim	poldrack-single-stim	s643	0	False
675.0	1.0	677.601	0.9	2.136	True	71.0	Magnitude	n/a	twobytwo	71.0	1.701	orange	2.0	task_switch	magnitude	switch	stim	poldrack-single-stim	s643	0	False
