duration	onset	block_duration	movement_onset	planning	condition	exp_stage	experiment_exp_id	key_press	problem_id	response_time	trial_id	trial_type	worker_id	junk
3.188	3.017	3.188	6.205	1	UA_with_intermediate	practice	ward_and_allport	89	0.0	3.188	to_hand	poldrack-single-stim	s643	False
0.1	6.206	0.42	6.626	0	UA_with_intermediate	practice	ward_and_allport	82	0.0	0.42	to_board	poldrack-single-stim	s643	False
0.1	6.629	5.17	11.799	0	UA_with_intermediate	practice	ward_and_allport	82	0.0	5.17	to_hand	poldrack-single-stim	s643	False
0.1	11.8	0.724	12.524	0	UA_with_intermediate	practice	ward_and_allport	89	0.0	0.724	to_board	poldrack-single-stim	s643	False
0.1	12.526	2.169	14.695	0	UA_with_intermediate	practice	ward_and_allport	71	0.0	2.169	to_hand	poldrack-single-stim	s643	False
0.1	14.696	0.795	15.491	0	UA_with_intermediate	practice	ward_and_allport	82	0.0	0.795	to_board	poldrack-single-stim	s643	False
0.1	15.495	0.52	16.015	0	UA_with_intermediate	practice	ward_and_allport	71	0.0	0.52	to_hand	poldrack-single-stim	s643	False
0.1	16.016	0.572	16.588	0	UA_with_intermediate	practice	ward_and_allport	89	0.0	0.572	to_board	poldrack-single-stim	s643	False
0.1	16.59	0.508	17.098	0	UA_with_intermediate	practice	ward_and_allport	82	0.0	0.508	to_hand	poldrack-single-stim	s643	False
0.1	17.099	0.854	17.953	0	UA_with_intermediate	practice	ward_and_allport	89	0.0	0.854	to_board	poldrack-single-stim	s643	False
1.0	17.959	2.5	17.958	0	UA_with_intermediate	practice	ward_and_allport	-1	0.0	n/a	feedback	poldrack-single-stim	s643	False
5.854	20.461	5.854	26.315	1	UA_with_intermediate	practice	ward_and_allport	71	1.0	5.854	to_hand	poldrack-single-stim	s643	False
0.1	26.316	0.814	27.13	0	UA_with_intermediate	practice	ward_and_allport	71	1.0	0.814	to_board	poldrack-single-stim	s643	False
0.1	27.132	0.761	27.893	0	UA_with_intermediate	practice	ward_and_allport	89	1.0	0.761	to_hand	poldrack-single-stim	s643	False
0.1	27.894	1.663	29.557	0	UA_with_intermediate	practice	ward_and_allport	82	1.0	1.663	to_board	poldrack-single-stim	s643	False
0.1	29.559	1.079	30.638	0	UA_with_intermediate	practice	ward_and_allport	71	1.0	1.079	to_hand	poldrack-single-stim	s643	False
0.1	30.639	0.557	31.196	0	UA_with_intermediate	practice	ward_and_allport	89	1.0	0.557	to_board	poldrack-single-stim	s643	False
0.1	31.198	0.615	31.813	0	UA_with_intermediate	practice	ward_and_allport	82	1.0	0.615	to_hand	poldrack-single-stim	s643	False
0.1	31.814	1.434	33.248	0	UA_with_intermediate	practice	ward_and_allport	89	1.0	1.434	to_board	poldrack-single-stim	s643	False
1.0	33.253	2.1	33.252	0	UA_with_intermediate	practice	ward_and_allport	-1	1.0	n/a	feedback	poldrack-single-stim	s643	False
4.266	35.356	4.266	39.622	1	UA_without_intermediate	practice	ward_and_allport	82	2.0	4.266	to_hand	poldrack-single-stim	s643	False
0.1	39.624	0.625	40.249	0	UA_without_intermediate	practice	ward_and_allport	89	2.0	0.625	to_board	poldrack-single-stim	s643	False
0.1	40.25	0.555	40.805	0	UA_without_intermediate	practice	ward_and_allport	71	2.0	0.555	to_hand	poldrack-single-stim	s643	False
0.1	40.807	0.536	41.343	0	UA_without_intermediate	practice	ward_and_allport	89	2.0	0.536	to_board	poldrack-single-stim	s643	False
0.1	41.344	1.146	42.49	0	UA_without_intermediate	practice	ward_and_allport	71	2.0	1.146	to_hand	poldrack-single-stim	s643	False
0.1	42.492	0.426	42.918	0	UA_without_intermediate	practice	ward_and_allport	89	2.0	0.426	to_board	poldrack-single-stim	s643	False
1.0	42.925	2.2	42.924	0	UA_without_intermediate	practice	ward_and_allport	-1	2.0	n/a	feedback	poldrack-single-stim	s643	False
5.439	45.127	5.439	50.566	1	UA_without_intermediate	practice	ward_and_allport	71	3.0	5.439	to_hand	poldrack-single-stim	s643	False
0.1	50.567	0.487	51.054	0	UA_without_intermediate	practice	ward_and_allport	89	3.0	0.487	to_board	poldrack-single-stim	s643	False
0.1	51.056	0.634	51.69	0	UA_without_intermediate	practice	ward_and_allport	82	3.0	0.634	to_hand	poldrack-single-stim	s643	False
0.1	51.691	1.529	53.22	0	UA_without_intermediate	practice	ward_and_allport	89	3.0	1.529	to_board	poldrack-single-stim	s643	False
0.1	53.222	0.985	54.207	0	UA_without_intermediate	practice	ward_and_allport	71	3.0	0.985	to_hand	poldrack-single-stim	s643	False
0.1	54.209	1.303	55.512	0	UA_without_intermediate	practice	ward_and_allport	89	3.0	1.303	to_board	poldrack-single-stim	s643	False
1.0	55.519	2.0	55.518	0	UA_without_intermediate	practice	ward_and_allport	-1	3.0	n/a	feedback	poldrack-single-stim	s643	False
7.558	59.532	7.558	67.09	1	PA_with_intermediate	test	ward_and_allport	71	0.0	7.558	to_hand	poldrack-single-stim	s643	False
0.1	67.091	0.375	67.466	0	PA_with_intermediate	test	ward_and_allport	82	0.0	0.375	to_board	poldrack-single-stim	s643	False
0.1	67.468	0.433	67.901	0	PA_with_intermediate	test	ward_and_allport	71	0.0	0.433	to_hand	poldrack-single-stim	s643	False
0.1	67.903	0.572	68.475	0	PA_with_intermediate	test	ward_and_allport	89	0.0	0.572	to_board	poldrack-single-stim	s643	False
0.1	68.477	0.506	68.983	0	PA_with_intermediate	test	ward_and_allport	82	0.0	0.506	to_hand	poldrack-single-stim	s643	False
0.1	68.984	0.43	69.414	0	PA_with_intermediate	test	ward_and_allport	89	0.0	0.43	to_board	poldrack-single-stim	s643	False
1.0	69.418	2.408	69.417	0	PA_with_intermediate	test	ward_and_allport	-1	0.0	n/a	feedback	poldrack-single-stim	s643	False
7.015	71.829	7.015	78.844	1	PA_without_intermediate	test	ward_and_allport	82	1.0	7.015	to_hand	poldrack-single-stim	s643	False
0.1	78.845	1.202	80.047	0	PA_without_intermediate	test	ward_and_allport	89	1.0	1.202	to_board	poldrack-single-stim	s643	False
0.1	80.05	1.603	81.653	0	PA_without_intermediate	test	ward_and_allport	82	1.0	1.603	to_hand	poldrack-single-stim	s643	False
0.1	81.654	0.86	82.514	0	PA_without_intermediate	test	ward_and_allport	71	1.0	0.86	to_board	poldrack-single-stim	s643	False
0.1	82.516	0.772	83.288	0	PA_without_intermediate	test	ward_and_allport	82	1.0	0.772	to_hand	poldrack-single-stim	s643	False
0.1	83.289	0.614	83.903	0	PA_without_intermediate	test	ward_and_allport	89	1.0	0.614	to_board	poldrack-single-stim	s643	False
1.0	83.911	2.68	83.91	0	PA_without_intermediate	test	ward_and_allport	-1	1.0	n/a	feedback	poldrack-single-stim	s643	False
6.21	86.594	6.21	92.804	1	PA_with_intermediate	test	ward_and_allport	89	2.0	6.21	to_hand	poldrack-single-stim	s643	False
0.1	92.805	0.401	93.206	0	PA_with_intermediate	test	ward_and_allport	71	2.0	0.401	to_board	poldrack-single-stim	s643	False
0.1	93.208	2.002	95.21	0	PA_with_intermediate	test	ward_and_allport	71	2.0	2.002	to_hand	poldrack-single-stim	s643	False
0.1	95.212	0.791	96.003	0	PA_with_intermediate	test	ward_and_allport	71	2.0	0.791	to_board	poldrack-single-stim	s643	False
0.1	96.006	0.863	96.869	0	PA_with_intermediate	test	ward_and_allport	89	2.0	0.863	to_hand	poldrack-single-stim	s643	False
0.1	96.869	1.054	97.923	0	PA_with_intermediate	test	ward_and_allport	82	2.0	1.054	to_board	poldrack-single-stim	s643	False
0.1	97.925	0.945	98.87	0	PA_with_intermediate	test	ward_and_allport	71	2.0	0.945	to_hand	poldrack-single-stim	s643	False
0.1	98.872	0.508	99.38	0	PA_with_intermediate	test	ward_and_allport	82	2.0	0.508	to_board	poldrack-single-stim	s643	False
1.0	99.388	4.72	99.387	0	PA_with_intermediate	test	ward_and_allport	-1	2.0	n/a	feedback	poldrack-single-stim	s643	False
4.015	104.112	4.015	108.127	1	PA_without_intermediate	test	ward_and_allport	71	3.0	4.015	to_hand	poldrack-single-stim	s643	False
0.1	108.128	0.52	108.648	0	PA_without_intermediate	test	ward_and_allport	89	3.0	0.52	to_board	poldrack-single-stim	s643	False
0.1	108.651	2.367	111.018	0	PA_without_intermediate	test	ward_and_allport	71	3.0	2.367	to_hand	poldrack-single-stim	s643	False
0.1	111.02	0.35	111.37	0	PA_without_intermediate	test	ward_and_allport	89	3.0	0.35	to_board	poldrack-single-stim	s643	False
0.1	111.373	0.71	112.083	0	PA_without_intermediate	test	ward_and_allport	71	3.0	0.71	to_hand	poldrack-single-stim	s643	False
0.1	112.085	0.398	112.483	0	PA_without_intermediate	test	ward_and_allport	82	3.0	0.398	to_board	poldrack-single-stim	s643	False
1.0	112.489	3.224	112.488	0	PA_without_intermediate	test	ward_and_allport	-1	3.0	n/a	feedback	poldrack-single-stim	s643	False
6.911	115.717	6.911	122.628	1	PA_without_intermediate	test	ward_and_allport	71	4.0	6.911	to_hand	poldrack-single-stim	s643	False
0.1	122.63	0.273	122.903	0	PA_without_intermediate	test	ward_and_allport	89	4.0	0.273	to_board	poldrack-single-stim	s643	False
0.1	122.907	0.978	123.885	0	PA_without_intermediate	test	ward_and_allport	71	4.0	0.978	to_hand	poldrack-single-stim	s643	False
0.1	123.886	0.446	124.332	0	PA_without_intermediate	test	ward_and_allport	82	4.0	0.446	to_board	poldrack-single-stim	s643	False
0.1	124.336	0.762	125.098	0	PA_without_intermediate	test	ward_and_allport	71	4.0	0.762	to_hand	poldrack-single-stim	s643	False
0.1	125.1	0.267	125.367	0	PA_without_intermediate	test	ward_and_allport	89	4.0	0.267	to_board	poldrack-single-stim	s643	False
1.0	125.375	2.272	125.374	0	PA_without_intermediate	test	ward_and_allport	-1	4.0	n/a	feedback	poldrack-single-stim	s643	False
6.717	127.65	6.717	134.367	1	PA_with_intermediate	test	ward_and_allport	71	5.0	6.717	to_hand	poldrack-single-stim	s643	False
0.1	134.368	0.257	134.625	0	PA_with_intermediate	test	ward_and_allport	89	5.0	0.257	to_board	poldrack-single-stim	s643	False
0.1	134.629	0.6	135.229	0	PA_with_intermediate	test	ward_and_allport	71	5.0	0.6	to_hand	poldrack-single-stim	s643	False
0.1	135.23	0.351	135.581	0	PA_with_intermediate	test	ward_and_allport	82	5.0	0.351	to_board	poldrack-single-stim	s643	False
0.1	135.584	1.212	136.796	0	PA_with_intermediate	test	ward_and_allport	89	5.0	1.212	to_hand	poldrack-single-stim	s643	False
0.1	136.797	0.303	137.1	0	PA_with_intermediate	test	ward_and_allport	71	5.0	0.303	to_board	poldrack-single-stim	s643	False
1.0	137.107	3.632	137.106	0	PA_with_intermediate	test	ward_and_allport	-1	5.0	n/a	feedback	poldrack-single-stim	s643	False
15.329	140.744	15.329	156.073	1	PA_without_intermediate	test	ward_and_allport	89	6.0	15.329	to_hand	poldrack-single-stim	s643	False
0.1	156.075	0.361	156.436	0	PA_without_intermediate	test	ward_and_allport	82	6.0	0.361	to_board	poldrack-single-stim	s643	False
0.1	156.439	1.578	158.017	0	PA_without_intermediate	test	ward_and_allport	89	6.0	1.578	to_hand	poldrack-single-stim	s643	False
0.1	158.018	0.382	158.4	0	PA_without_intermediate	test	ward_and_allport	71	6.0	0.382	to_board	poldrack-single-stim	s643	False
0.1	158.403	0.916	159.319	0	PA_without_intermediate	test	ward_and_allport	89	6.0	0.916	to_hand	poldrack-single-stim	s643	False
0.1	159.32	0.347	159.667	0	PA_without_intermediate	test	ward_and_allport	82	6.0	0.347	to_board	poldrack-single-stim	s643	False
1.0	159.676	2.408	159.675	0	PA_without_intermediate	test	ward_and_allport	-1	6.0	n/a	feedback	poldrack-single-stim	s643	False
5.206	162.088	5.206	167.294	1	PA_without_intermediate	test	ward_and_allport	89	7.0	5.206	to_hand	poldrack-single-stim	s643	False
0.1	167.295	0.303	167.598	0	PA_without_intermediate	test	ward_and_allport	82	7.0	0.303	to_board	poldrack-single-stim	s643	False
0.1	167.602	0.907	168.509	0	PA_without_intermediate	test	ward_and_allport	89	7.0	0.907	to_hand	poldrack-single-stim	s643	False
0.1	168.511	0.396	168.907	0	PA_without_intermediate	test	ward_and_allport	82	7.0	0.396	to_board	poldrack-single-stim	s643	False
0.1	168.911	0.659	169.57	0	PA_without_intermediate	test	ward_and_allport	89	7.0	0.659	to_hand	poldrack-single-stim	s643	False
0.1	169.57	0.272	169.842	0	PA_without_intermediate	test	ward_and_allport	71	7.0	0.272	to_board	poldrack-single-stim	s643	False
1.0	169.85	2.0	169.849	0	PA_without_intermediate	test	ward_and_allport	-1	7.0	n/a	feedback	poldrack-single-stim	s643	False
8.285	171.853	8.285	180.138	1	PA_with_intermediate	test	ward_and_allport	82	8.0	8.285	to_hand	poldrack-single-stim	s643	False
0.1	180.14	0.258	180.398	0	PA_with_intermediate	test	ward_and_allport	89	8.0	0.258	to_board	poldrack-single-stim	s643	False
0.1	180.401	1.619	182.02	0	PA_with_intermediate	test	ward_and_allport	89	8.0	1.619	to_hand	poldrack-single-stim	s643	False
0.1	182.022	1.281	183.303	0	PA_with_intermediate	test	ward_and_allport	71	8.0	1.281	to_board	poldrack-single-stim	s643	False
0.1	183.307	2.989	186.296	0	PA_with_intermediate	test	ward_and_allport	82	8.0	2.989	to_hand	poldrack-single-stim	s643	False
0.1	186.297	0.444	186.741	0	PA_with_intermediate	test	ward_and_allport	89	8.0	0.444	to_board	poldrack-single-stim	s643	False
0.1	186.745	0.587	187.332	0	PA_with_intermediate	test	ward_and_allport	71	8.0	0.587	to_hand	poldrack-single-stim	s643	False
0.1	187.333	0.378	187.711	0	PA_with_intermediate	test	ward_and_allport	82	8.0	0.378	to_board	poldrack-single-stim	s643	False
1.0	187.722	2.0	187.721	0	PA_with_intermediate	test	ward_and_allport	-1	8.0	n/a	feedback	poldrack-single-stim	s643	False
6.149	189.727	6.149	195.876	1	PA_with_intermediate	test	ward_and_allport	89	9.0	6.149	to_hand	poldrack-single-stim	s643	False
0.1	195.877	0.313	196.19	0	PA_with_intermediate	test	ward_and_allport	82	9.0	0.313	to_board	poldrack-single-stim	s643	False
0.1	196.193	0.81	197.003	0	PA_with_intermediate	test	ward_and_allport	89	9.0	0.81	to_hand	poldrack-single-stim	s643	False
0.1	197.005	0.352	197.357	0	PA_with_intermediate	test	ward_and_allport	71	9.0	0.352	to_board	poldrack-single-stim	s643	False
0.1	197.361	0.848	198.209	0	PA_with_intermediate	test	ward_and_allport	82	9.0	0.848	to_hand	poldrack-single-stim	s643	False
0.1	198.21	0.234	198.444	0	PA_with_intermediate	test	ward_and_allport	89	9.0	0.234	to_board	poldrack-single-stim	s643	False
1.0	198.45	2.0	198.449	0	PA_with_intermediate	test	ward_and_allport	-1	9.0	n/a	feedback	poldrack-single-stim	s643	False
10.045	200.456	10.045	210.501	1	PA_with_intermediate	test	ward_and_allport	89	10.0	10.045	to_hand	poldrack-single-stim	s643	False
0.1	210.503	0.359	210.862	0	PA_with_intermediate	test	ward_and_allport	82	10.0	0.359	to_board	poldrack-single-stim	s643	False
0.1	210.866	1.1	211.966	0	PA_with_intermediate	test	ward_and_allport	89	10.0	1.1	to_hand	poldrack-single-stim	s643	False
0.1	211.967	0.305	212.272	0	PA_with_intermediate	test	ward_and_allport	71	10.0	0.305	to_board	poldrack-single-stim	s643	False
0.1	212.276	0.742	213.018	0	PA_with_intermediate	test	ward_and_allport	82	10.0	0.742	to_hand	poldrack-single-stim	s643	False
0.1	213.02	0.252	213.272	0	PA_with_intermediate	test	ward_and_allport	71	10.0	0.252	to_board	poldrack-single-stim	s643	False
1.0	213.279	2.408	213.278	0	PA_with_intermediate	test	ward_and_allport	-1	10.0	n/a	feedback	poldrack-single-stim	s643	False
9.153	215.691	9.153	224.844	1	PA_without_intermediate	test	ward_and_allport	89	11.0	9.153	to_hand	poldrack-single-stim	s643	False
0.1	224.845	0.247	225.092	0	PA_without_intermediate	test	ward_and_allport	71	11.0	0.247	to_board	poldrack-single-stim	s643	False
0.1	225.097	0.777	225.874	0	PA_without_intermediate	test	ward_and_allport	89	11.0	0.777	to_hand	poldrack-single-stim	s643	False
0.1	225.876	0.294	226.17	0	PA_without_intermediate	test	ward_and_allport	82	11.0	0.294	to_board	poldrack-single-stim	s643	False
0.1	226.174	0.676	226.85	0	PA_without_intermediate	test	ward_and_allport	89	11.0	0.676	to_hand	poldrack-single-stim	s643	False
0.1	226.852	0.298	227.15	0	PA_without_intermediate	test	ward_and_allport	71	11.0	0.298	to_board	poldrack-single-stim	s643	False
1.0	227.16	2.816	227.159	0	PA_without_intermediate	test	ward_and_allport	-1	11.0	n/a	feedback	poldrack-single-stim	s643	False
3.711	229.981	3.711	233.692	1	PA_with_intermediate	test	ward_and_allport	82	12.0	3.711	to_hand	poldrack-single-stim	s643	False
0.1	233.692	0.254	233.946	0	PA_with_intermediate	test	ward_and_allport	71	12.0	0.254	to_board	poldrack-single-stim	s643	False
0.1	233.951	0.636	234.587	0	PA_with_intermediate	test	ward_and_allport	82	12.0	0.636	to_hand	poldrack-single-stim	s643	False
0.1	234.588	0.243	234.831	0	PA_with_intermediate	test	ward_and_allport	89	12.0	0.243	to_board	poldrack-single-stim	s643	False
0.1	234.837	1.47	236.307	0	PA_with_intermediate	test	ward_and_allport	71	12.0	1.47	to_hand	poldrack-single-stim	s643	False
0.1	236.309	0.262	236.571	0	PA_with_intermediate	test	ward_and_allport	82	12.0	0.262	to_board	poldrack-single-stim	s643	False
1.0	236.58	4.176	236.579	0	PA_with_intermediate	test	ward_and_allport	-1	12.0	n/a	feedback	poldrack-single-stim	s643	False
15.271	240.761	15.271	256.032	1	PA_with_intermediate	test	ward_and_allport	82	13.0	15.271	to_hand	poldrack-single-stim	s643	False
0.1	256.034	0.277	256.311	0	PA_with_intermediate	test	ward_and_allport	71	13.0	0.277	to_board	poldrack-single-stim	s643	False
0.1	256.316	1.303	257.619	0	PA_with_intermediate	test	ward_and_allport	82	13.0	1.303	to_hand	poldrack-single-stim	s643	False
0.1	257.621	0.288	257.909	0	PA_with_intermediate	test	ward_and_allport	89	13.0	0.288	to_board	poldrack-single-stim	s643	False
0.1	257.913	0.733	258.646	0	PA_with_intermediate	test	ward_and_allport	71	13.0	0.733	to_hand	poldrack-single-stim	s643	False
0.1	258.648	0.266	258.914	0	PA_with_intermediate	test	ward_and_allport	89	13.0	0.266	to_board	poldrack-single-stim	s643	False
1.0	258.924	3.36	258.923	0	PA_with_intermediate	test	ward_and_allport	-1	13.0	n/a	feedback	poldrack-single-stim	s643	False
3.084	262.292	3.084	265.376	1	PA_with_intermediate	test	ward_and_allport	71	14.0	3.084	to_hand	poldrack-single-stim	s643	False
0.1	265.377	0.204	265.581	0	PA_with_intermediate	test	ward_and_allport	89	14.0	0.204	to_board	poldrack-single-stim	s643	False
0.1	265.586	0.528	266.114	0	PA_with_intermediate	test	ward_and_allport	71	14.0	0.528	to_hand	poldrack-single-stim	s643	False
0.1	266.115	0.557	266.672	0	PA_with_intermediate	test	ward_and_allport	82	14.0	0.557	to_board	poldrack-single-stim	s643	False
0.1	266.676	0.692	267.368	0	PA_with_intermediate	test	ward_and_allport	89	14.0	0.692	to_hand	poldrack-single-stim	s643	False
0.1	267.369	0.429	267.798	0	PA_with_intermediate	test	ward_and_allport	82	14.0	0.429	to_board	poldrack-single-stim	s643	False
1.0	267.806	2.0	267.805	0	PA_with_intermediate	test	ward_and_allport	-1	14.0	n/a	feedback	poldrack-single-stim	s643	False
4.033	274.819	4.033	278.852	1	PA_without_intermediate	test	ward_and_allport	71	15.0	4.033	to_hand	poldrack-single-stim	s643	False
0.1	278.854	0.737	279.591	0	PA_without_intermediate	test	ward_and_allport	82	15.0	0.737	to_board	poldrack-single-stim	s643	False
0.1	279.596	0.613	280.209	0	PA_without_intermediate	test	ward_and_allport	71	15.0	0.613	to_hand	poldrack-single-stim	s643	False
0.1	280.21	0.882	281.092	0	PA_without_intermediate	test	ward_and_allport	82	15.0	0.882	to_board	poldrack-single-stim	s643	False
0.1	281.097	0.551	281.648	0	PA_without_intermediate	test	ward_and_allport	71	15.0	0.551	to_hand	poldrack-single-stim	s643	False
0.1	281.65	0.492	282.142	0	PA_without_intermediate	test	ward_and_allport	89	15.0	0.492	to_board	poldrack-single-stim	s643	False
1.0	282.151	2.408	282.15	0	PA_without_intermediate	test	ward_and_allport	-1	15.0	n/a	feedback	poldrack-single-stim	s643	False
9.486	284.564	9.486	294.05	1	PA_with_intermediate	test	ward_and_allport	89	16.0	9.486	to_hand	poldrack-single-stim	s643	False
0.1	294.052	0.355	294.407	0	PA_with_intermediate	test	ward_and_allport	82	16.0	0.355	to_board	poldrack-single-stim	s643	False
0.1	294.412	0.782	295.194	0	PA_with_intermediate	test	ward_and_allport	89	16.0	0.782	to_hand	poldrack-single-stim	s643	False
0.1	295.196	0.314	295.51	0	PA_with_intermediate	test	ward_and_allport	71	16.0	0.314	to_board	poldrack-single-stim	s643	False
0.1	295.515	0.669	296.184	0	PA_with_intermediate	test	ward_and_allport	82	16.0	0.669	to_hand	poldrack-single-stim	s643	False
0.1	296.185	0.298	296.483	0	PA_with_intermediate	test	ward_and_allport	71	16.0	0.298	to_board	poldrack-single-stim	s643	False
1.0	296.492	2.816	296.491	0	PA_with_intermediate	test	ward_and_allport	-1	16.0	n/a	feedback	poldrack-single-stim	s643	False
4.793	299.314	4.793	304.107	1	PA_without_intermediate	test	ward_and_allport	71	17.0	4.793	to_hand	poldrack-single-stim	s643	False
0.1	304.107	0.441	304.548	0	PA_without_intermediate	test	ward_and_allport	82	17.0	0.441	to_board	poldrack-single-stim	s643	False
0.1	304.553	0.439	304.992	0	PA_without_intermediate	test	ward_and_allport	71	17.0	0.439	to_hand	poldrack-single-stim	s643	False
0.1	304.993	0.392	305.385	0	PA_without_intermediate	test	ward_and_allport	89	17.0	0.392	to_board	poldrack-single-stim	s643	False
0.1	305.39	0.524	305.914	0	PA_without_intermediate	test	ward_and_allport	71	17.0	0.524	to_hand	poldrack-single-stim	s643	False
0.1	305.916	0.421	306.337	0	PA_without_intermediate	test	ward_and_allport	82	17.0	0.421	to_board	poldrack-single-stim	s643	False
1.0	306.342	3.088	306.341	0	PA_without_intermediate	test	ward_and_allport	-1	17.0	n/a	feedback	poldrack-single-stim	s643	False
3.956	309.437	3.956	313.393	1	PA_without_intermediate	test	ward_and_allport	71	18.0	3.956	to_hand	poldrack-single-stim	s643	False
0.1	313.395	0.272	313.667	0	PA_without_intermediate	test	ward_and_allport	89	18.0	0.272	to_board	poldrack-single-stim	s643	False
0.1	313.672	0.434	314.106	0	PA_without_intermediate	test	ward_and_allport	71	18.0	0.434	to_hand	poldrack-single-stim	s643	False
0.1	314.108	0.247	314.355	0	PA_without_intermediate	test	ward_and_allport	89	18.0	0.247	to_board	poldrack-single-stim	s643	False
0.1	314.36	0.629	314.989	0	PA_without_intermediate	test	ward_and_allport	71	18.0	0.629	to_hand	poldrack-single-stim	s643	False
0.1	314.991	0.271	315.262	0	PA_without_intermediate	test	ward_and_allport	82	18.0	0.271	to_board	poldrack-single-stim	s643	False
1.0	315.271	2.136	315.27	0	PA_without_intermediate	test	ward_and_allport	-1	18.0	n/a	feedback	poldrack-single-stim	s643	False
6.337	317.414	6.337	323.751	1	PA_without_intermediate	test	ward_and_allport	71	19.0	6.337	to_hand	poldrack-single-stim	s643	False
0.1	323.752	0.276	324.028	0	PA_without_intermediate	test	ward_and_allport	82	19.0	0.276	to_board	poldrack-single-stim	s643	False
0.1	324.034	0.389	324.423	0	PA_without_intermediate	test	ward_and_allport	71	19.0	0.389	to_hand	poldrack-single-stim	s643	False
0.1	324.423	0.254	324.677	0	PA_without_intermediate	test	ward_and_allport	82	19.0	0.254	to_board	poldrack-single-stim	s643	False
0.1	324.683	0.371	325.054	0	PA_without_intermediate	test	ward_and_allport	71	19.0	0.371	to_hand	poldrack-single-stim	s643	False
0.1	325.054	0.217	325.271	0	PA_without_intermediate	test	ward_and_allport	89	19.0	0.217	to_board	poldrack-single-stim	s643	False
1.0	325.282	7.168	325.281	0	PA_without_intermediate	test	ward_and_allport	-1	19.0	n/a	feedback	poldrack-single-stim	s643	False
14.661	332.457	14.661	347.118	1	PA_without_intermediate	test	ward_and_allport	82	20.0	14.661	to_hand	poldrack-single-stim	s643	False
0.1	347.12	0.399	347.519	0	PA_without_intermediate	test	ward_and_allport	71	20.0	0.399	to_board	poldrack-single-stim	s643	False
0.1	347.525	0.726	348.251	0	PA_without_intermediate	test	ward_and_allport	82	20.0	0.726	to_hand	poldrack-single-stim	s643	False
0.1	348.253	3.743	351.996	0	PA_without_intermediate	test	ward_and_allport	82	20.0	3.743	to_board	poldrack-single-stim	s643	False
0.1	352.001	0.759	352.76	0	PA_without_intermediate	test	ward_and_allport	71	20.0	0.759	to_hand	poldrack-single-stim	s643	False
0.1	352.762	0.43	353.192	0	PA_without_intermediate	test	ward_and_allport	89	20.0	0.43	to_board	poldrack-single-stim	s643	False
0.1	353.198	0.424	353.622	0	PA_without_intermediate	test	ward_and_allport	82	20.0	0.424	to_hand	poldrack-single-stim	s643	False
0.1	353.623	0.355	353.978	0	PA_without_intermediate	test	ward_and_allport	71	20.0	0.355	to_board	poldrack-single-stim	s643	False
0.1	353.984	1.405	355.389	0	PA_without_intermediate	test	ward_and_allport	82	20.0	1.405	to_hand	poldrack-single-stim	s643	False
0.1	355.391	0.327	355.718	0	PA_without_intermediate	test	ward_and_allport	89	20.0	0.327	to_board	poldrack-single-stim	s643	False
1.0	355.727	2.816	355.726	0	PA_without_intermediate	test	ward_and_allport	-1	20.0	n/a	feedback	poldrack-single-stim	s643	False
5.167	358.55	5.167	363.717	1	PA_with_intermediate	test	ward_and_allport	71	21.0	5.167	to_hand	poldrack-single-stim	s643	False
0.1	363.718	0.317	364.035	0	PA_with_intermediate	test	ward_and_allport	82	21.0	0.317	to_board	poldrack-single-stim	s643	False
0.1	364.041	0.356	364.397	0	PA_with_intermediate	test	ward_and_allport	71	21.0	0.356	to_hand	poldrack-single-stim	s643	False
0.1	364.398	0.301	364.699	0	PA_with_intermediate	test	ward_and_allport	89	21.0	0.301	to_board	poldrack-single-stim	s643	False
0.1	364.706	0.423	365.129	0	PA_with_intermediate	test	ward_and_allport	82	21.0	0.423	to_hand	poldrack-single-stim	s643	False
0.1	365.13	0.264	365.394	0	PA_with_intermediate	test	ward_and_allport	71	21.0	0.264	to_board	poldrack-single-stim	s643	False
1.0	365.405	2.952	365.404	0	PA_with_intermediate	test	ward_and_allport	-1	21.0	n/a	feedback	poldrack-single-stim	s643	False
3.899	368.364	3.899	372.263	1	PA_with_intermediate	test	ward_and_allport	89	22.0	3.899	to_hand	poldrack-single-stim	s643	False
0.1	372.265	0.253	372.518	0	PA_with_intermediate	test	ward_and_allport	71	22.0	0.253	to_board	poldrack-single-stim	s643	False
0.1	372.525	0.393	372.918	0	PA_with_intermediate	test	ward_and_allport	89	22.0	0.393	to_hand	poldrack-single-stim	s643	False
0.1	372.92	0.294	373.214	0	PA_with_intermediate	test	ward_and_allport	82	22.0	0.294	to_board	poldrack-single-stim	s643	False
0.1	373.221	0.407	373.628	0	PA_with_intermediate	test	ward_and_allport	71	22.0	0.407	to_hand	poldrack-single-stim	s643	False
0.1	373.63	0.252	373.882	0	PA_with_intermediate	test	ward_and_allport	89	22.0	0.252	to_board	poldrack-single-stim	s643	False
1.0	373.894	2.136	373.893	0	PA_with_intermediate	test	ward_and_allport	-1	22.0	n/a	feedback	poldrack-single-stim	s643	False
12.862	376.038	12.862	388.9	1	PA_without_intermediate	test	ward_and_allport	89	23.0	12.862	to_hand	poldrack-single-stim	s643	False
0.1	388.902	1.407	390.309	0	PA_without_intermediate	test	ward_and_allport	71	23.0	1.407	to_board	poldrack-single-stim	s643	False
0.1	390.316	0.797	391.113	0	PA_without_intermediate	test	ward_and_allport	89	23.0	0.797	to_hand	poldrack-single-stim	s643	False
0.1	391.115	1.276	392.391	0	PA_without_intermediate	test	ward_and_allport	82	23.0	1.276	to_board	poldrack-single-stim	s643	False
0.1	392.397	0.773	393.17	0	PA_without_intermediate	test	ward_and_allport	89	23.0	0.773	to_hand	poldrack-single-stim	s643	False
0.1	393.172	0.59	393.762	0	PA_without_intermediate	test	ward_and_allport	71	23.0	0.59	to_board	poldrack-single-stim	s643	False
1.0	393.77	2.68	393.769	0	PA_without_intermediate	test	ward_and_allport	-1	23.0	n/a	feedback	poldrack-single-stim	s643	False
5.042	396.456	5.042	401.498	1	PA_without_intermediate	test	ward_and_allport	71	24.0	5.042	to_hand	poldrack-single-stim	s643	False
0.1	401.499	0.255	401.754	0	PA_without_intermediate	test	ward_and_allport	82	24.0	0.255	to_board	poldrack-single-stim	s643	False
0.1	401.763	0.728	402.491	0	PA_without_intermediate	test	ward_and_allport	71	24.0	0.728	to_hand	poldrack-single-stim	s643	False
0.1	402.492	0.224	402.716	0	PA_without_intermediate	test	ward_and_allport	89	24.0	0.224	to_board	poldrack-single-stim	s643	False
0.1	402.723	0.635	403.358	0	PA_without_intermediate	test	ward_and_allport	71	24.0	0.635	to_hand	poldrack-single-stim	s643	False
0.1	403.359	0.279	403.638	0	PA_without_intermediate	test	ward_and_allport	82	24.0	0.279	to_board	poldrack-single-stim	s643	False
1.0	403.648	3.088	403.647	0	PA_without_intermediate	test	ward_and_allport	-1	24.0	n/a	feedback	poldrack-single-stim	s643	False
6.296	406.743	6.296	413.039	1	PA_with_intermediate	test	ward_and_allport	82	25.0	6.296	to_hand	poldrack-single-stim	s643	False
0.1	413.04	0.46	413.5	0	PA_with_intermediate	test	ward_and_allport	89	25.0	0.46	to_board	poldrack-single-stim	s643	False
0.1	413.506	0.916	414.422	0	PA_with_intermediate	test	ward_and_allport	82	25.0	0.916	to_hand	poldrack-single-stim	s643	False
0.1	414.423	0.405	414.828	0	PA_with_intermediate	test	ward_and_allport	71	25.0	0.405	to_board	poldrack-single-stim	s643	False
0.1	414.835	0.516	415.351	0	PA_with_intermediate	test	ward_and_allport	89	25.0	0.516	to_hand	poldrack-single-stim	s643	False
0.1	415.353	0.237	415.59	0	PA_with_intermediate	test	ward_and_allport	71	25.0	0.237	to_board	poldrack-single-stim	s643	False
1.0	415.601	2.0	415.6	0	PA_with_intermediate	test	ward_and_allport	-1	25.0	n/a	feedback	poldrack-single-stim	s643	False
9.726	417.609	9.726	427.335	1	PA_without_intermediate	test	ward_and_allport	82	26.0	9.726	to_hand	poldrack-single-stim	s643	False
0.1	427.337	0.268	427.605	0	PA_without_intermediate	test	ward_and_allport	71	26.0	0.268	to_board	poldrack-single-stim	s643	False
0.1	427.612	0.686	428.298	0	PA_without_intermediate	test	ward_and_allport	82	26.0	0.686	to_hand	poldrack-single-stim	s643	False
0.1	428.3	0.31	428.61	0	PA_without_intermediate	test	ward_and_allport	71	26.0	0.31	to_board	poldrack-single-stim	s643	False
0.1	428.616	1.454	430.07	0	PA_without_intermediate	test	ward_and_allport	82	26.0	1.454	to_hand	poldrack-single-stim	s643	False
0.1	430.072	0.449	430.521	0	PA_without_intermediate	test	ward_and_allport	89	26.0	0.449	to_board	poldrack-single-stim	s643	False
1.0	430.53	2.0	430.529	0	PA_without_intermediate	test	ward_and_allport	-1	26.0	n/a	feedback	poldrack-single-stim	s643	False
8.993	432.539	8.993	441.532	1	PA_without_intermediate	test	ward_and_allport	89	27.0	8.993	to_hand	poldrack-single-stim	s643	False
0.1	441.534	0.23	441.764	0	PA_without_intermediate	test	ward_and_allport	82	27.0	0.23	to_board	poldrack-single-stim	s643	False
0.1	441.771	1.036	442.807	0	PA_without_intermediate	test	ward_and_allport	89	27.0	1.036	to_hand	poldrack-single-stim	s643	False
0.1	442.809	0.277	443.086	0	PA_without_intermediate	test	ward_and_allport	71	27.0	0.277	to_board	poldrack-single-stim	s643	False
0.1	443.093	0.641	443.734	0	PA_without_intermediate	test	ward_and_allport	89	27.0	0.641	to_hand	poldrack-single-stim	s643	False
0.1	443.736	0.423	444.159	0	PA_without_intermediate	test	ward_and_allport	82	27.0	0.423	to_board	poldrack-single-stim	s643	False
1.0	444.17	2.0	444.169	0	PA_without_intermediate	test	ward_and_allport	-1	27.0	n/a	feedback	poldrack-single-stim	s643	False
4.535	446.177	4.535	450.712	1	PA_with_intermediate	test	ward_and_allport	89	28.0	4.535	to_hand	poldrack-single-stim	s643	False
0.1	450.713	0.25	450.963	0	PA_with_intermediate	test	ward_and_allport	71	28.0	0.25	to_board	poldrack-single-stim	s643	False
0.1	450.969	0.547	451.516	0	PA_with_intermediate	test	ward_and_allport	89	28.0	0.547	to_hand	poldrack-single-stim	s643	False
0.1	451.518	0.274	451.792	0	PA_with_intermediate	test	ward_and_allport	82	28.0	0.274	to_board	poldrack-single-stim	s643	False
0.1	451.799	0.59	452.389	0	PA_with_intermediate	test	ward_and_allport	71	28.0	0.59	to_hand	poldrack-single-stim	s643	False
0.1	452.39	0.21	452.6	0	PA_with_intermediate	test	ward_and_allport	89	28.0	0.21	to_board	poldrack-single-stim	s643	False
1.0	452.611	2.544	452.61	0	PA_with_intermediate	test	ward_and_allport	-1	28.0	n/a	feedback	poldrack-single-stim	s643	False
3.264	455.164	3.264	458.428	1	PA_without_intermediate	test	ward_and_allport	89	29.0	3.264	to_hand	poldrack-single-stim	s643	False
0.1	458.43	0.239	458.669	0	PA_without_intermediate	test	ward_and_allport	71	29.0	0.239	to_board	poldrack-single-stim	s643	False
0.1	458.677	0.594	459.271	0	PA_without_intermediate	test	ward_and_allport	89	29.0	0.594	to_hand	poldrack-single-stim	s643	False
0.1	459.272	0.241	459.513	0	PA_without_intermediate	test	ward_and_allport	71	29.0	0.241	to_board	poldrack-single-stim	s643	False
0.1	459.521	0.538	460.059	0	PA_without_intermediate	test	ward_and_allport	89	29.0	0.538	to_hand	poldrack-single-stim	s643	False
0.1	460.061	0.273	460.334	0	PA_without_intermediate	test	ward_and_allport	82	29.0	0.273	to_board	poldrack-single-stim	s643	False
1.0	460.346	2.272	460.345	0	PA_without_intermediate	test	ward_and_allport	-1	29.0	n/a	feedback	poldrack-single-stim	s643	False
11.628	467.631	11.628	479.259	1	PA_with_intermediate	test	ward_and_allport	82	30.0	11.628	to_hand	poldrack-single-stim	s643	False
0.1	479.261	0.349	479.61	0	PA_with_intermediate	test	ward_and_allport	89	30.0	0.349	to_board	poldrack-single-stim	s643	False
0.1	479.618	0.821	480.439	0	PA_with_intermediate	test	ward_and_allport	82	30.0	0.821	to_hand	poldrack-single-stim	s643	False
0.1	480.441	0.301	480.742	0	PA_with_intermediate	test	ward_and_allport	71	30.0	0.301	to_board	poldrack-single-stim	s643	False
0.1	480.75	0.491	481.241	0	PA_with_intermediate	test	ward_and_allport	89	30.0	0.491	to_hand	poldrack-single-stim	s643	False
0.1	481.242	0.282	481.524	0	PA_with_intermediate	test	ward_and_allport	71	30.0	0.282	to_board	poldrack-single-stim	s643	False
1.0	481.536	4.04	481.535	0	PA_with_intermediate	test	ward_and_allport	-1	30.0	n/a	feedback	poldrack-single-stim	s643	False
8.873	485.584	8.873	494.457	1	PA_with_intermediate	test	ward_and_allport	89	31.0	8.873	to_hand	poldrack-single-stim	s643	False
0.1	494.458	0.384	494.842	0	PA_with_intermediate	test	ward_and_allport	82	31.0	0.384	to_board	poldrack-single-stim	s643	False
0.1	494.851	0.604	495.455	0	PA_with_intermediate	test	ward_and_allport	89	31.0	0.604	to_hand	poldrack-single-stim	s643	False
0.1	495.456	0.326	495.782	0	PA_with_intermediate	test	ward_and_allport	71	31.0	0.326	to_board	poldrack-single-stim	s643	False
0.1	495.791	0.593	496.384	0	PA_with_intermediate	test	ward_and_allport	82	31.0	0.593	to_hand	poldrack-single-stim	s643	False
0.1	496.385	0.225	496.61	0	PA_with_intermediate	test	ward_and_allport	89	31.0	0.225	to_board	poldrack-single-stim	s643	False
1.0	496.624	2.272	496.623	0	PA_with_intermediate	test	ward_and_allport	-1	31.0	n/a	feedback	poldrack-single-stim	s643	False
2.181	498.906	2.181	501.087	1	PA_with_intermediate	test	ward_and_allport	71	32.0	2.181	to_hand	poldrack-single-stim	s643	False
0.1	501.089	0.268	501.357	0	PA_with_intermediate	test	ward_and_allport	89	32.0	0.268	to_board	poldrack-single-stim	s643	False
0.1	501.366	0.482	501.848	0	PA_with_intermediate	test	ward_and_allport	71	32.0	0.482	to_hand	poldrack-single-stim	s643	False
0.1	501.85	0.268	502.118	0	PA_with_intermediate	test	ward_and_allport	82	32.0	0.268	to_board	poldrack-single-stim	s643	False
0.1	502.125	0.774	502.899	0	PA_with_intermediate	test	ward_and_allport	89	32.0	0.774	to_hand	poldrack-single-stim	s643	False
0.1	502.901	0.269	503.17	0	PA_with_intermediate	test	ward_and_allport	71	32.0	0.269	to_board	poldrack-single-stim	s643	False
1.0	503.18	2.136	503.179	0	PA_with_intermediate	test	ward_and_allport	-1	32.0	n/a	feedback	poldrack-single-stim	s643	False
2.294	505.323	2.294	507.617	1	PA_with_intermediate	test	ward_and_allport	71	33.0	2.294	to_hand	poldrack-single-stim	s643	False
0.1	507.617	0.341	507.958	0	PA_with_intermediate	test	ward_and_allport	71	33.0	0.341	to_board	poldrack-single-stim	s643	False
0.1	507.965	0.741	508.706	0	PA_with_intermediate	test	ward_and_allport	71	33.0	0.741	to_hand	poldrack-single-stim	s643	False
0.1	508.707	0.346	509.053	0	PA_with_intermediate	test	ward_and_allport	82	33.0	0.346	to_board	poldrack-single-stim	s643	False
0.1	509.062	0.731	509.793	0	PA_with_intermediate	test	ward_and_allport	71	33.0	0.731	to_hand	poldrack-single-stim	s643	False
0.1	509.794	0.251	510.045	0	PA_with_intermediate	test	ward_and_allport	89	33.0	0.251	to_board	poldrack-single-stim	s643	False
0.1	510.055	1.061	511.116	0	PA_with_intermediate	test	ward_and_allport	82	33.0	1.061	to_hand	poldrack-single-stim	s643	False
0.1	511.117	0.543	511.66	0	PA_with_intermediate	test	ward_and_allport	89	33.0	0.543	to_board	poldrack-single-stim	s643	False
1.0	511.673	2.0	511.672	0	PA_with_intermediate	test	ward_and_allport	-1	33.0	n/a	feedback	poldrack-single-stim	s643	False
2.358	513.681	2.358	516.039	1	PA_with_intermediate	test	ward_and_allport	71	34.0	2.358	to_hand	poldrack-single-stim	s643	False
0.1	516.041	0.373	516.414	0	PA_with_intermediate	test	ward_and_allport	82	34.0	0.373	to_board	poldrack-single-stim	s643	False
0.1	516.421	1.151	517.572	0	PA_with_intermediate	test	ward_and_allport	71	34.0	1.151	to_hand	poldrack-single-stim	s643	False
0.1	517.574	0.342	517.916	0	PA_with_intermediate	test	ward_and_allport	89	34.0	0.342	to_board	poldrack-single-stim	s643	False
0.1	517.924	0.45	518.374	0	PA_with_intermediate	test	ward_and_allport	82	34.0	0.45	to_hand	poldrack-single-stim	s643	False
0.1	518.376	0.262	518.638	0	PA_with_intermediate	test	ward_and_allport	71	34.0	0.262	to_board	poldrack-single-stim	s643	False
1.0	518.651	2.0	518.65	0	PA_with_intermediate	test	ward_and_allport	-1	34.0	n/a	feedback	poldrack-single-stim	s643	False
9.53	520.662	9.53	530.192	1	PA_without_intermediate	test	ward_and_allport	82	35.0	9.53	to_hand	poldrack-single-stim	s643	False
0.1	530.193	0.241	530.434	0	PA_without_intermediate	test	ward_and_allport	71	35.0	0.241	to_board	poldrack-single-stim	s643	False
0.1	530.441	0.987	531.428	0	PA_without_intermediate	test	ward_and_allport	82	35.0	0.987	to_hand	poldrack-single-stim	s643	False
0.1	531.429	0.243	531.672	0	PA_without_intermediate	test	ward_and_allport	89	35.0	0.243	to_board	poldrack-single-stim	s643	False
0.1	531.681	1.069	532.75	0	PA_without_intermediate	test	ward_and_allport	82	35.0	1.069	to_hand	poldrack-single-stim	s643	False
0.1	532.751	0.227	532.978	0	PA_without_intermediate	test	ward_and_allport	71	35.0	0.227	to_board	poldrack-single-stim	s643	False
1.0	532.992	2.408	532.991	0	PA_without_intermediate	test	ward_and_allport	-1	35.0	n/a	feedback	poldrack-single-stim	s643	False
4.383	535.41	4.383	539.793	1	PA_with_intermediate	test	ward_and_allport	89	36.0	4.383	to_hand	poldrack-single-stim	s643	False
0.1	539.795	0.236	540.031	0	PA_with_intermediate	test	ward_and_allport	71	36.0	0.236	to_board	poldrack-single-stim	s643	False
0.1	540.041	0.723	540.764	0	PA_with_intermediate	test	ward_and_allport	89	36.0	0.723	to_hand	poldrack-single-stim	s643	False
0.1	540.765	0.326	541.091	0	PA_with_intermediate	test	ward_and_allport	82	36.0	0.326	to_board	poldrack-single-stim	s643	False
0.1	541.101	0.483	541.584	0	PA_with_intermediate	test	ward_and_allport	71	36.0	0.483	to_hand	poldrack-single-stim	s643	False
0.1	541.586	0.27	541.856	0	PA_with_intermediate	test	ward_and_allport	82	36.0	0.27	to_board	poldrack-single-stim	s643	False
1.0	541.87	3.768	541.869	0	PA_with_intermediate	test	ward_and_allport	-1	36.0	n/a	feedback	poldrack-single-stim	s643	False
3.327	545.646	3.327	548.973	1	PA_with_intermediate	test	ward_and_allport	82	37.0	3.327	to_hand	poldrack-single-stim	s643	False
0.1	548.974	0.244	549.218	0	PA_with_intermediate	test	ward_and_allport	71	37.0	0.244	to_board	poldrack-single-stim	s643	False
0.1	549.225	0.868	550.093	0	PA_with_intermediate	test	ward_and_allport	82	37.0	0.868	to_hand	poldrack-single-stim	s643	False
0.1	550.094	0.626	550.72	0	PA_with_intermediate	test	ward_and_allport	89	37.0	0.626	to_board	poldrack-single-stim	s643	False
0.1	550.729	0.423	551.152	0	PA_with_intermediate	test	ward_and_allport	71	37.0	0.423	to_hand	poldrack-single-stim	s643	False
0.1	551.154	0.391	551.545	0	PA_with_intermediate	test	ward_and_allport	89	37.0	0.391	to_board	poldrack-single-stim	s643	False
1.0	551.555	2.68	551.554	0	PA_with_intermediate	test	ward_and_allport	-1	37.0	n/a	feedback	poldrack-single-stim	s643	False
3.862	554.241	3.862	558.103	1	PA_without_intermediate	test	ward_and_allport	89	38.0	3.862	to_hand	poldrack-single-stim	s643	False
0.1	558.105	0.359	558.464	0	PA_without_intermediate	test	ward_and_allport	82	38.0	0.359	to_board	poldrack-single-stim	s643	False
0.1	558.472	0.86	559.332	0	PA_without_intermediate	test	ward_and_allport	89	38.0	0.86	to_hand	poldrack-single-stim	s643	False
0.1	559.334	0.415	559.749	0	PA_without_intermediate	test	ward_and_allport	82	38.0	0.415	to_board	poldrack-single-stim	s643	False
0.1	559.759	0.378	560.137	0	PA_without_intermediate	test	ward_and_allport	89	38.0	0.378	to_hand	poldrack-single-stim	s643	False
0.1	560.138	0.228	560.366	0	PA_without_intermediate	test	ward_and_allport	71	38.0	0.228	to_board	poldrack-single-stim	s643	False
1.0	560.379	3.224	560.378	0	PA_without_intermediate	test	ward_and_allport	-1	38.0	n/a	feedback	poldrack-single-stim	s643	False
2.865	563.611	2.865	566.476	1	PA_without_intermediate	test	ward_and_allport	71	39.0	2.865	to_hand	poldrack-single-stim	s643	False
0.1	566.477	0.262	566.739	0	PA_without_intermediate	test	ward_and_allport	89	39.0	0.262	to_board	poldrack-single-stim	s643	False
0.1	566.748	0.728	567.476	0	PA_without_intermediate	test	ward_and_allport	71	39.0	0.728	to_hand	poldrack-single-stim	s643	False
0.1	567.477	0.247	567.724	0	PA_without_intermediate	test	ward_and_allport	82	39.0	0.247	to_board	poldrack-single-stim	s643	False
0.1	567.732	0.892	568.624	0	PA_without_intermediate	test	ward_and_allport	71	39.0	0.892	to_hand	poldrack-single-stim	s643	False
0.1	568.625	0.222	568.847	0	PA_without_intermediate	test	ward_and_allport	89	39.0	0.222	to_board	poldrack-single-stim	s643	False
1.0	568.86	3.36	568.859	0	PA_without_intermediate	test	ward_and_allport	-1	39.0	n/a	feedback	poldrack-single-stim	s643	False
