onset	duration	movement_onset	EV	action	block_duration	experiment_exp_id	gain_amount	gain_probability	key_press	loss_amount	loss_probability	num_cards	num_click_in_round	num_loss_cards	risk	response_time	total_cards	trial_id	trial_type	worker_id	junk	feedback
3.018	7.725	10.743	0.038380802609526	draw_card	7.725	columbia_card_task_fmri	12.0	0.8333333333333334	89.0	-70.0	0.1666666666666666	6.0	1.0	1.0	-3.411889771022164	7.725	1.0	stim	poldrack-single-stim	s644	False	0
11.5	1.5	10.749	n/a	-1.0	2.454	columbia_card_task_fmri	n/a	n/a	-1.0	n/a	n/a	n/a	n/a	n/a	n/a	n/a	n/a	ITI	poldrack-single-stim	s644	False	0
13.206	5.95	19.156	0.87171413594286	draw_card	5.95	columbia_card_task_fmri	14.0	0.8333333333333334	89.0	-75.0	0.1666666666666666	6.0	1.0	1.0	-0.8068768859993156	5.95	n/a	stim	poldrack-single-stim	s644	False	1
19.158	0.976	20.134	-2.094952530723807	draw_card	0.976	columbia_card_task_fmri	14.0	0.8	89.0	-75.0	0.2	6.0	2.0	1.0	1.6217935249321371	0.976	n/a	stim	poldrack-single-stim	s644	False	1
20.135	0.965	21.1	-6.544952530723808	draw_card	0.965	columbia_card_task_fmri	14.0	0.75	89.0	-75.0	0.25	6.0	3.0	1.0	4.556815983307786	0.965	n/a	stim	poldrack-single-stim	s644	False	1
21.101	1.447	22.548	-13.961619197390474	end_round	1.447	columbia_card_task_fmri	14.0	0.6666666666666667	71.0	-75.0	0.3333333333333333	6.0	4.0	1.0	7.97062018092533	1.447	3.0	stim	poldrack-single-stim	s644	False	1
23.304	1.5	22.553	n/a	-1.0	2.454	columbia_card_task_fmri	n/a	n/a	-1.0	n/a	n/a	n/a	n/a	n/a	n/a	n/a	n/a	ITI	poldrack-single-stim	s644	False	0
25.013	3.127	28.14	2.538380802609526	draw_card	3.127	columbia_card_task_fmri	15.0	0.8333333333333334	89.0	-70.0	0.1666666666666666	6.0	1.0	1.0	-2.295530803920453	3.127	n/a	stim	poldrack-single-stim	s644	False	1
28.141	0.554	28.695	-0.2949525307238079	draw_card	0.554	columbia_card_task_fmri	15.0	0.8	89.0	-70.0	0.2	6.0	2.0	1.0	0.0237115399451184	0.554	n/a	stim	poldrack-single-stim	s644	False	1
28.697	0.609	29.306	-4.544952530723808	draw_card	0.609	columbia_card_task_fmri	15.0	0.75	89.0	-70.0	0.25	6.0	3.0	1.0	2.8265374296596804	0.609	3.0	stim	poldrack-single-stim	s644	False	0
30.062	1.5	29.311	n/a	-1.0	2.522	columbia_card_task_fmri	n/a	n/a	-1.0	n/a	n/a	n/a	n/a	n/a	n/a	n/a	n/a	ITI	poldrack-single-stim	s644	False	0
31.836	2.503	34.339	3.37171413594286	draw_card	2.503	columbia_card_task_fmri	17.0	0.8333333333333334	89.0	-75.0	0.1666666666666666	6.0	1.0	1.0	0.3097307707630889	2.503	n/a	stim	poldrack-single-stim	s644	False	1
34.341	0.611	34.952	0.3050474692761935	draw_card	0.611	columbia_card_task_fmri	17.0	0.8	89.0	-75.0	0.2	6.0	2.0	1.0	2.820464282952109	0.611	n/a	stim	poldrack-single-stim	s644	False	1
34.953	1.217	36.17	-4.294952530723808	draw_card	1.217	columbia_card_task_fmri	17.0	0.75	89.0	-75.0	0.25	6.0	3.0	1.0	5.854625888528148	1.217	n/a	stim	poldrack-single-stim	s644	False	1
36.172	1.058	37.23	-11.961619197390474	end_round	1.058	columbia_card_task_fmri	17.0	0.6666666666666667	71.0	-75.0	0.3333333333333333	6.0	4.0	1.0	9.38370531906996	1.058	3.0	stim	poldrack-single-stim	s644	False	1
37.984	1.5	37.233	n/a	-1.0	2.386	columbia_card_task_fmri	n/a	n/a	-1.0	n/a	n/a	n/a	n/a	n/a	n/a	n/a	n/a	ITI	poldrack-single-stim	s644	False	0
39.622	2.958	42.58	4.705047469276192	draw_card	2.958	columbia_card_task_fmri	24.0	0.75	89.0	-60.0	0.25	8.0	1.0	2.0	2.3939941216772667	2.958	1.0	stim	poldrack-single-stim	s644	False	0
43.336	1.5	42.585	n/a	-1.0	2.454	columbia_card_task_fmri	n/a	n/a	-1.0	n/a	n/a	n/a	n/a	n/a	n/a	n/a	n/a	ITI	poldrack-single-stim	s644	False	0
45.043	3.426	48.469	4.705047469276192	draw_card	3.426	columbia_card_task_fmri	29.0	0.75	89.0	-75.0	0.25	8.0	1.0	2.0	11.046573250088407	3.426	1.0	stim	poldrack-single-stim	s644	False	0
49.225	1.5	48.474	n/a	-1.0	2.522	columbia_card_task_fmri	n/a	n/a	-1.0	n/a	n/a	n/a	n/a	n/a	n/a	n/a	n/a	ITI	poldrack-single-stim	s644	False	0
50.999	3.439	54.438	0.4828252470539724	draw_card	3.439	columbia_card_task_fmri	17.0	0.7777777777777778	89.0	-65.0	0.2222222222222222	9.0	1.0	2.0	0.1142542529603574	3.439	n/a	stim	poldrack-single-stim	s644	False	1
54.44	0.824	55.264	-1.794952530723808	draw_card	0.824	columbia_card_task_fmri	17.0	0.75	89.0	-65.0	0.25	9.0	2.0	2.0	1.528941793499378	0.824	n/a	stim	poldrack-single-stim	s644	False	1
55.266	0.529	55.795	-4.723523959295235	draw_card	0.529	columbia_card_task_fmri	17.0	0.7142857142857143	89.0	-65.0	0.2857142857142857	9.0	3.0	2.0	3.0640287276764155	0.529	n/a	stim	poldrack-single-stim	s644	False	1
55.797	0.961	56.758	-8.628285864057139	draw_card	0.961	columbia_card_task_fmri	17.0	0.6666666666666667	89.0	-65.0	0.3333333333333333	9.0	4.0	2.0	4.673742183018369	0.961	4.0	stim	poldrack-single-stim	s644	False	0
57.513	1.5	56.762	n/a	-1.0	2.522	columbia_card_task_fmri	n/a	n/a	-1.0	n/a	n/a	n/a	n/a	n/a	n/a	n/a	n/a	ITI	poldrack-single-stim	s644	False	0
59.286	3.339	62.625	4.805047469276191	draw_card	3.339	columbia_card_task_fmri	14.0	0.9	89.0	-95.0	0.1	10.0	1.0	1.0	-1.2745921371935935	3.339	n/a	stim	poldrack-single-stim	s644	False	1
62.628	0.416	63.044	3.59393635816508	draw_card	0.416	columbia_card_task_fmri	14.0	0.8888888888888888	89.0	-95.0	0.1111111111111111	10.0	2.0	1.0	0.2787885647198962	0.416	n/a	stim	poldrack-single-stim	s644	False	1
63.045	0.403	63.448	2.080047469276192	draw_card	0.403	columbia_card_task_fmri	14.0	0.875	89.0	-95.0	0.125	10.0	3.0	1.0	2.0696481489979703	0.403	n/a	stim	poldrack-single-stim	s644	False	1
63.449	0.332	63.781	0.1336188978476209	draw_card	0.332	columbia_card_task_fmri	14.0	0.8571428571428572	89.0	-95.0	0.1428571428571428	10.0	4.0	1.0	4.1611311767616	0.332	n/a	stim	poldrack-single-stim	s644	False	1
63.782	0.305	64.087	-2.461619197390472	draw_card	0.305	columbia_card_task_fmri	14.0	0.8333333333333334	89.0	-95.0	0.1666666666666666	10.0	5.0	1.0	6.638654972537154	0.305	5.0	stim	poldrack-single-stim	s644	False	0
64.84	1.5	64.089	n/a	-1.0	2.59	columbia_card_task_fmri	n/a	n/a	-1.0	n/a	n/a	n/a	n/a	n/a	n/a	n/a	n/a	ITI	poldrack-single-stim	s644	False	0
66.682	4.183	70.865	0.7050474692761921	draw_card	4.183	columbia_card_task_fmri	15.0	0.8	89.0	-65.0	0.2	10.0	1.0	2.0	-1.973621762795254	4.183	n/a	stim	poldrack-single-stim	s644	False	1
70.867	0.668	71.535	-1.072730308501585	end_round	0.668	columbia_card_task_fmri	15.0	0.7777777777777778	71.0	-65.0	0.2222222222222222	10.0	2.0	2.0	-0.7161612358494835	0.668	1.0	stim	poldrack-single-stim	s644	False	1
72.291	1.5	71.54	n/a	-1.0	2.454	columbia_card_task_fmri	n/a	n/a	-1.0	n/a	n/a	n/a	n/a	n/a	n/a	n/a	n/a	ITI	poldrack-single-stim	s644	False	0
73.996	2.383	76.379	2.305047469276193	draw_card	2.383	columbia_card_task_fmri	17.0	0.8	89.0	-65.0	0.2	10.0	1.0	2.0	-1.1747273879114033	2.383	1.0	stim	poldrack-single-stim	s644	False	0
77.136	1.5	76.385	n/a	-1.0	2.318	columbia_card_task_fmri	n/a	n/a	-1.0	n/a	n/a	n/a	n/a	n/a	n/a	n/a	n/a	ITI	poldrack-single-stim	s644	False	0
78.707	2.776	81.483	0.87171413594286	draw_card	2.776	columbia_card_task_fmri	13.0	0.8333333333333334	89.0	-70.0	0.1666666666666666	12.0	1.0	2.0	-3.0397835388517755	2.776	1.0	stim	poldrack-single-stim	s644	False	0
82.239	1.5	81.488	n/a	-1.0	2.25	columbia_card_task_fmri	n/a	n/a	-1.0	n/a	n/a	n/a	n/a	n/a	n/a	n/a	n/a	ITI	poldrack-single-stim	s644	False	0
83.742	4.115	87.857	0.87171413594286	end_round	4.115	columbia_card_task_fmri	15.0	0.8333333333333334	71.0	-80.0	0.1666666666666666	12.0	1.0	2.0	1.4264283500841728	4.115	0.0	stim	poldrack-single-stim	s644	False	1
88.614	1.5	87.863	n/a	-1.0	2.658	columbia_card_task_fmri	n/a	n/a	-1.0	n/a	n/a	n/a	n/a	n/a	n/a	n/a	n/a	ITI	poldrack-single-stim	s644	False	0
90.524	3.373	93.897	-0.0949525307238068	draw_card	3.373	columbia_card_task_fmri	14.0	0.8	89.0	-65.0	0.2	15.0	1.0	3.0	-2.373048002326186	3.373	1.0	stim	poldrack-single-stim	s644	False	0
94.655	1.5	93.904	n/a	-1.0	2.454	columbia_card_task_fmri	n/a	n/a	-1.0	n/a	n/a	n/a	n/a	n/a	n/a	n/a	n/a	ITI	poldrack-single-stim	s644	False	0
96.36	7.407	103.767	-0.1699525307238079	end_round	7.407	columbia_card_task_fmri	1.0	0.9375	71.0	-45.0	0.0625	16.0	1.0	1.0	-22.75439888431636	7.407	0.0	stim	poldrack-single-stim	s644	False	1
104.523	1.5	103.772	n/a	-1.0	2.386	columbia_card_task_fmri	n/a	n/a	-1.0	n/a	n/a	n/a	n/a	n/a	n/a	n/a	n/a	ITI	poldrack-single-stim	s644	False	0
106.162	2.818	108.98	0.7675474692761921	draw_card	2.818	columbia_card_task_fmri	15.0	0.8125	89.0	-70.0	0.1875	16.0	1.0	3.0	-0.7986775096158638	2.818	n/a	stim	poldrack-single-stim	s644	False	1
108.982	0.455	109.437	-0.2949525307238079	draw_card	0.455	columbia_card_task_fmri	15.0	0.8	89.0	-70.0	0.2	16.0	2.0	3.0	0.0237115399451184	0.455	n/a	stim	poldrack-single-stim	s644	False	1
109.438	0.726	110.164	-1.5092382450095232	draw_card	0.726	columbia_card_task_fmri	15.0	0.7857142857142857	89.0	-70.0	0.2142857142857142	16.0	3.0	3.0	0.9003394187710825	0.726	n/a	stim	poldrack-single-stim	s644	False	1
110.167	0.695	110.862	-2.9103371461084246	draw_card	0.695	columbia_card_task_fmri	15.0	0.7692307692307692	89.0	-70.0	0.2307692307692307	16.0	4.0	3.0	1.834180272944245	0.695	n/a	stim	poldrack-single-stim	s644	False	1
110.864	0.833	111.697	-4.544952530723808	draw_card	0.833	columbia_card_task_fmri	15.0	0.75	89.0	-70.0	0.25	16.0	5.0	3.0	2.8265374296596804	0.833	5.0	stim	poldrack-single-stim	s644	False	0
112.453	1.5	111.702	n/a	-1.0	2.59	columbia_card_task_fmri	n/a	n/a	-1.0	n/a	n/a	n/a	n/a	n/a	n/a	n/a	n/a	ITI	poldrack-single-stim	s644	False	0
114.295	4.001	118.296	7.705047469276192	draw_card	4.001	columbia_card_task_fmri	30.0	0.7	89.0	-50.0	0.3	10.0	1.0	3.0	2.6812197902780497	4.001	n/a	stim	poldrack-single-stim	s644	False	1
118.298	0.844	119.142	5.038380802609531	draw_card	0.844	columbia_card_task_fmri	30.0	0.6666666666666667	89.0	-50.0	0.3333333333333333	10.0	2.0	3.0	3.7318718402218	0.844	n/a	stim	poldrack-single-stim	s644	False	1
119.144	1.584	120.728	1.705047469276192	draw_card	1.584	columbia_card_task_fmri	30.0	0.625	89.0	-50.0	0.375	10.0	3.0	3.0	4.7483325530231895	1.584	n/a	stim	poldrack-single-stim	s644	False	1
120.73	0.824	121.554	-2.5806668164380926	end_round	0.824	columbia_card_task_fmri	30.0	0.5714285714285714	71.0	-50.0	0.4285714285714285	10.0	4.0	3.0	5.607417796400547	0.824	3.0	stim	poldrack-single-stim	s644	False	1
122.311	1.5	121.56	n/a	-1.0	2.318	columbia_card_task_fmri	n/a	n/a	-1.0	n/a	n/a	n/a	n/a	n/a	n/a	n/a	n/a	ITI	poldrack-single-stim	s644	False	0
123.882	2.23	126.112	7.105047469276192	draw_card	2.23	columbia_card_task_fmri	17.0	0.8666666666666667	89.0	-70.0	0.1333333333333333	15.0	1.0	2.0	-4.395591419337965	2.23	n/a	stim	poldrack-single-stim	s644	False	1
126.115	0.373	126.488	6.276476040704765	draw_card	0.373	columbia_card_task_fmri	17.0	0.8571428571428572	89.0	-70.0	0.1428571428571428	15.0	2.0	2.0	-3.527646511910177	0.373	n/a	stim	poldrack-single-stim	s644	False	1
126.491	0.257	126.748	5.320432084660807	draw_card	0.257	columbia_card_task_fmri	17.0	0.8461538461538461	89.0	-70.0	0.1538461538461538	15.0	3.0	2.0	-2.583035034081906	0.257	n/a	stim	poldrack-single-stim	s644	False	1
126.75	0.242	126.992	4.205047469276193	draw_card	0.242	columbia_card_task_fmri	17.0	0.8333333333333334	89.0	-70.0	0.1666666666666666	15.0	4.0	2.0	-1.5512274519455858	0.242	n/a	stim	poldrack-single-stim	s644	False	1
126.995	0.242	127.237	2.886865651094372	draw_card	0.242	columbia_card_task_fmri	17.0	0.8181818181818181	89.0	-70.0	0.1818181818181818	15.0	5.0	2.0	-0.420292228796562	0.242	n/a	stim	poldrack-single-stim	s644	False	1
127.24	0.229	127.469	1.3050474692761935	draw_card	0.229	columbia_card_task_fmri	17.0	0.8	89.0	-70.0	0.2	15.0	6.0	2.0	0.8227305259083053	0.229	n/a	stim	poldrack-single-stim	s644	False	1
127.471	0.795	128.266	-0.62828586405714	draw_card	0.795	columbia_card_task_fmri	17.0	0.7777777777777778	89.0	-70.0	0.2222222222222222	15.0	7.0	2.0	2.190506610456943	0.795	n/a	stim	poldrack-single-stim	s644	False	1
128.269	2.099	130.368	-3.044952530723808	end_round	2.099	columbia_card_task_fmri	17.0	0.75	71.0	-70.0	0.25	15.0	8.0	2.0	3.6916563669982096	2.099	7.0	stim	poldrack-single-stim	s644	False	1
131.125	1.5	130.374	n/a	-1.0	2.59	columbia_card_task_fmri	n/a	n/a	-1.0	n/a	n/a	n/a	n/a	n/a	n/a	n/a	n/a	ITI	poldrack-single-stim	s644	False	0
132.967	2.808	135.775	2.330047469276192	end_round	2.808	columbia_card_task_fmri	7.0	0.9375	71.0	-95.0	0.0625	16.0	1.0	1.0	-9.269942422931097	2.808	0.0	stim	poldrack-single-stim	s644	False	1
136.53	1.5	135.779	n/a	-1.0	2.386	columbia_card_task_fmri	n/a	n/a	-1.0	n/a	n/a	n/a	n/a	n/a	n/a	n/a	n/a	ITI	poldrack-single-stim	s644	False	0
138.169	3.113	141.282	3.892547469276192	draw_card	3.113	columbia_card_task_fmri	9.0	0.9375	89.0	-100.0	0.0625	16.0	1.0	1.0	-7.579280426248214	3.113	1.0	stim	poldrack-single-stim	s644	False	0
142.037	1.5	141.286	n/a	-1.0	2.318	columbia_card_task_fmri	n/a	n/a	-1.0	n/a	n/a	n/a	n/a	n/a	n/a	n/a	n/a	ITI	poldrack-single-stim	s644	False	0
143.607	3.451	147.058	4.830047469276192	draw_card	3.451	columbia_card_task_fmri	15.0	0.875	89.0	-80.0	0.125	16.0	1.0	2.0	-2.554485733116863	3.451	n/a	stim	poldrack-single-stim	s644	False	1
147.06	0.704	147.764	4.038380802609526	draw_card	0.704	columbia_card_task_fmri	15.0	0.8666666666666667	89.0	-80.0	0.1333333333333333	16.0	2.0	2.0	-1.6802438886852826	0.704	n/a	stim	poldrack-single-stim	s644	False	1
147.767	0.347	148.114	3.1336188978476227	draw_card	0.347	columbia_card_task_fmri	15.0	0.8571428571428572	89.0	-80.0	0.1428571428571428	16.0	3.0	2.0	-0.732241799131657	0.347	n/a	stim	poldrack-single-stim	s644	False	1
148.116	0.268	148.384	2.089662853891576	draw_card	0.268	columbia_card_task_fmri	15.0	0.8461538461538461	89.0	-80.0	0.1538461538461538	16.0	4.0	2.0	0.2994829512650199	0.268	n/a	stim	poldrack-single-stim	s644	False	1
148.387	0.226	148.613	0.87171413594286	draw_card	0.226	columbia_card_task_fmri	15.0	0.8333333333333334	89.0	-80.0	0.1666666666666666	16.0	5.0	2.0	1.4264283500841728	0.226	n/a	stim	poldrack-single-stim	s644	False	1
148.615	0.388	149.003	-0.567679803451083	draw_card	0.388	columbia_card_task_fmri	15.0	0.8181818181818181	89.0	-80.0	0.1818181818181818	16.0	6.0	2.0	2.661623177485758	0.388	6.0	stim	poldrack-single-stim	s644	False	0
149.761	1.5	149.01	n/a	-1.0	2.318	columbia_card_task_fmri	n/a	n/a	-1.0	n/a	n/a	n/a	n/a	n/a	n/a	n/a	n/a	ITI	poldrack-single-stim	s644	False	0
151.332	1.968	153.3	6.955047469276192	draw_card	1.968	columbia_card_task_fmri	16.0	0.875	89.0	-70.0	0.125	16.0	1.0	2.0	-5.526126006463251	1.968	n/a	stim	poldrack-single-stim	s644	False	1
153.301	0.403	153.704	6.238380802609525	draw_card	0.403	columbia_card_task_fmri	16.0	0.8666666666666667	89.0	-70.0	0.1333333333333333	16.0	2.0	2.0	-4.73495597302156	0.403	2.0	stim	poldrack-single-stim	s644	False	0
154.461	1.5	153.71	n/a	-1.0	2.318	columbia_card_task_fmri	n/a	n/a	-1.0	n/a	n/a	n/a	n/a	n/a	n/a	n/a	n/a	ITI	poldrack-single-stim	s644	False	0
156.031	3.208	159.239	8.267547469276192	draw_card	3.208	columbia_card_task_fmri	30.0	0.6875	89.0	-45.0	0.3125	16.0	1.0	5.0	0.7862047952488851	3.208	1.0	stim	poldrack-single-stim	s644	False	0
159.997	1.5	159.246	n/a	-1.0	2.386	columbia_card_task_fmri	n/a	n/a	-1.0	n/a	n/a	n/a	n/a	n/a	n/a	n/a	n/a	ITI	poldrack-single-stim	s644	False	0
161.636	2.323	163.959	0.038380802609526	end_round	2.323	columbia_card_task_fmri	13.0	0.8333333333333334	71.0	-75.0	0.1666666666666666	6.0	1.0	1.0	-1.1790578700701388	2.323	0.0	stim	poldrack-single-stim	s644	False	1
164.716	1.5	163.965	n/a	-1.0	2.25	columbia_card_task_fmri	n/a	n/a	-1.0	n/a	n/a	n/a	n/a	n/a	n/a	n/a	n/a	ITI	poldrack-single-stim	s644	False	0
166.219	1.904	168.123	1.705047469276194	draw_card	1.904	columbia_card_task_fmri	14.0	0.8333333333333334	89.0	-70.0	0.1666666666666666	6.0	1.0	1.0	-2.667663723822841	1.904	n/a	stim	poldrack-single-stim	s644	False	1
168.125	0.504	168.629	-1.0949525307238068	draw_card	0.504	columbia_card_task_fmri	14.0	0.8	89.0	-70.0	0.2	6.0	2.0	1.0	-0.3757804681632564	0.504	n/a	stim	poldrack-single-stim	s644	False	1
168.631	1.365	169.996	-5.294952530723808	draw_card	1.365	columbia_card_task_fmri	14.0	0.75	89.0	-70.0	0.25	6.0	3.0	1.0	2.3939941216772667	1.365	n/a	stim	poldrack-single-stim	s644	False	1
169.999	0.636	170.635	-12.294952530723808	end_round	0.636	columbia_card_task_fmri	14.0	0.6666666666666667	71.0	-70.0	0.3333333333333333	6.0	4.0	1.0	5.615657162169363	0.636	3.0	stim	poldrack-single-stim	s644	False	1
171.391	1.5	170.64	n/a	-1.0	2.386	columbia_card_task_fmri	n/a	n/a	-1.0	n/a	n/a	n/a	n/a	n/a	n/a	n/a	n/a	ITI	poldrack-single-stim	s644	False	0
173.031	4.835	177.866	1.705047469276194	draw_card	4.835	columbia_card_task_fmri	16.0	0.8333333333333334	89.0	-80.0	0.1666666666666666	6.0	1.0	1.0	1.7986794056479738	4.835	n/a	stim	poldrack-single-stim	s644	False	1
177.869	0.498	178.367	-1.4949525307238072	draw_card	0.498	columbia_card_task_fmri	16.0	0.8	89.0	-80.0	0.2	6.0	2.0	1.0	4.418820993676846	0.498	n/a	stim	poldrack-single-stim	s644	False	1
178.369	0.431	178.8	-6.294952530723808	draw_card	0.431	columbia_card_task_fmri	16.0	0.75	89.0	-80.0	0.25	6.0	3.0	1.0	7.585158347316444	0.431	n/a	stim	poldrack-single-stim	s644	False	1
178.803	1.332	180.135	-14.294952530723805	draw_card	1.332	columbia_card_task_fmri	16.0	0.6666666666666667	89.0	-80.0	0.3333333333333333	6.0	4.0	1.0	11.267928423118228	1.332	n/a	stim	poldrack-single-stim	s644	False	1
180.138	1.554	181.692	-30.29495253072381	draw_card	1.554	columbia_card_task_fmri	16.0	0.5	89.0	-80.0	0.5	6.0	5.0	1.0	14.011259287226151	1.554	5.0	stim	poldrack-single-stim	s644	False	0
182.445	1.5	181.694	n/a	-1.0	2.59	columbia_card_task_fmri	n/a	n/a	-1.0	n/a	n/a	n/a	n/a	n/a	n/a	n/a	n/a	ITI	poldrack-single-stim	s644	False	0
184.286	2.007	186.293	4.205047469276193	draw_card	2.007	columbia_card_task_fmri	17.0	0.8333333333333334	89.0	-70.0	0.1666666666666666	6.0	1.0	1.0	-1.5512274519455858	2.007	n/a	stim	poldrack-single-stim	s644	False	1
186.295	0.395	186.69	1.3050474692761935	draw_card	0.395	columbia_card_task_fmri	17.0	0.8	89.0	-70.0	0.2	6.0	2.0	1.0	0.8227305259083053	0.395	n/a	stim	poldrack-single-stim	s644	False	1
186.692	0.444	187.136	-3.044952530723808	draw_card	0.444	columbia_card_task_fmri	17.0	0.75	89.0	-70.0	0.25	6.0	3.0	1.0	3.6916563669982096	0.444	3.0	stim	poldrack-single-stim	s644	False	0
187.893	1.5	187.142	n/a	-1.0	2.658	columbia_card_task_fmri	n/a	n/a	-1.0	n/a	n/a	n/a	n/a	n/a	n/a	n/a	n/a	ITI	poldrack-single-stim	s644	False	0
189.804	3.392	193.196	4.205047469276192	draw_card	3.392	columbia_card_task_fmri	25.0	0.75	89.0	-65.0	0.25	8.0	1.0	2.0	4.989410200259528	3.392	n/a	stim	poldrack-single-stim	s644	False	1
193.198	1.19	194.388	0.9907617549904804	draw_card	1.19	columbia_card_task_fmri	25.0	0.7142857142857143	89.0	-65.0	0.2857142857142857	8.0	2.0	2.0	6.674577410138163	1.19	n/a	stim	poldrack-single-stim	s644	False	1
194.393	0.807	195.2	-3.2949525307238043	end_round	0.807	columbia_card_task_fmri	25.0	0.6666666666666667	71.0	-65.0	0.3333333333333333	8.0	3.0	2.0	8.441640211683705	0.807	2.0	stim	poldrack-single-stim	s644	False	1
195.955	1.5	195.204	n/a	-1.0	2.386	columbia_card_task_fmri	n/a	n/a	-1.0	n/a	n/a	n/a	n/a	n/a	n/a	n/a	n/a	ITI	poldrack-single-stim	s644	False	0
197.594	3.061	200.655	4.205047469276192	draw_card	3.061	columbia_card_task_fmri	30.0	0.75	89.0	-80.0	0.25	8.0	1.0	2.0	13.642890623218063	3.061	n/a	stim	poldrack-single-stim	s644	False	1
200.658	0.467	201.125	0.2764760407047686	draw_card	0.467	columbia_card_task_fmri	30.0	0.7142857142857143	89.0	-80.0	0.2857142857142857	8.0	2.0	2.0	15.70316320414974	0.467	2.0	stim	poldrack-single-stim	s644	False	0
201.882	1.5	201.131	n/a	-1.0	2.386	columbia_card_task_fmri	n/a	n/a	-1.0	n/a	n/a	n/a	n/a	n/a	n/a	n/a	n/a	ITI	poldrack-single-stim	s644	False	0
203.521	2.301	205.822	3.905047469276193	draw_card	2.301	columbia_card_task_fmri	13.0	0.9	89.0	-95.0	0.1	10.0	1.0	1.0	-1.5741813860587257	2.301	n/a	stim	poldrack-single-stim	s644	False	1
205.825	0.431	206.256	2.705047469276192	draw_card	0.431	columbia_card_task_fmri	13.0	0.8888888888888888	89.0	-95.0	0.1111111111111111	10.0	2.0	1.0	-0.0350889437227621	0.431	n/a	stim	poldrack-single-stim	s644	False	1
206.258	0.336	206.594	1.205047469276192	draw_card	0.336	columbia_card_task_fmri	13.0	0.875	89.0	-95.0	0.125	10.0	3.0	1.0	1.7393019690728906	0.336	n/a	stim	poldrack-single-stim	s644	False	1
206.597	1.869	208.466	-0.7235239592952349	draw_card	1.869	columbia_card_task_fmri	13.0	0.8571428571428572	89.0	-95.0	0.1428571428571428	10.0	4.0	1.0	3.811556408079241	1.869	4.0	stim	poldrack-single-stim	s644	False	0
209.223	1.5	208.472	n/a	-1.0	2.25	columbia_card_task_fmri	n/a	n/a	-1.0	n/a	n/a	n/a	n/a	n/a	n/a	n/a	n/a	ITI	poldrack-single-stim	s644	False	0
210.727	0.786	211.513	5.305047469276191	draw_card	0.786	columbia_card_task_fmri	14.0	0.9	89.0	-90.0	0.1	10.0	1.0	1.0	-2.7724595625017585	0.786	n/a	stim	poldrack-single-stim	s644	False	1
211.516	1.845	213.361	4.1494919137206345	draw_card	1.845	columbia_card_task_fmri	14.0	0.8888888888888888	89.0	-90.0	0.1111111111111111	10.0	2.0	1.0	-1.2905237091046189	1.845	n/a	stim	poldrack-single-stim	s644	False	1
213.364	0.387	213.751	2.705047469276192	draw_card	0.387	columbia_card_task_fmri	14.0	0.875	89.0	-90.0	0.125	10.0	3.0	1.0	0.4179888007975734	0.387	n/a	stim	poldrack-single-stim	s644	False	1
213.753	0.468	214.221	0.8479046121333362	draw_card	0.468	columbia_card_task_fmri	14.0	0.8571428571428572	89.0	-90.0	0.1428571428571428	10.0	4.0	1.0	2.4133249822918685	0.468	n/a	stim	poldrack-single-stim	s644	False	1
214.224	2.026	216.25	-1.62828586405714	draw_card	2.026	columbia_card_task_fmri	14.0	0.8333333333333334	89.0	-90.0	0.1666666666666666	10.0	5.0	1.0	4.776982970868616	2.026	n/a	stim	poldrack-single-stim	s644	False	1
216.252	1.053	217.305	-5.094952530723807	end_round	1.053	columbia_card_task_fmri	14.0	0.8	71.0	-90.0	0.2	10.0	6.0	1.0	7.615913124746001	1.053	5.0	stim	poldrack-single-stim	s644	False	1
218.062	1.5	217.311	n/a	-1.0	2.318	columbia_card_task_fmri	n/a	n/a	-1.0	n/a	n/a	n/a	n/a	n/a	n/a	n/a	n/a	ITI	poldrack-single-stim	s644	False	0
219.633	2.069	221.702	0.5050474692761928	draw_card	2.069	columbia_card_task_fmri	16.0	0.8	89.0	-70.0	0.2	10.0	1.0	2.0	0.4232153398431251	2.069	n/a	stim	poldrack-single-stim	s644	False	1
221.705	0.448	222.153	-1.4060636418349186	draw_card	0.448	columbia_card_task_fmri	16.0	0.7777777777777778	89.0	-70.0	0.2222222222222222	10.0	2.0	2.0	1.7752334229074975	0.448	n/a	stim	poldrack-single-stim	s644	False	1
222.156	2.036	224.192	-3.794952530723808	draw_card	2.036	columbia_card_task_fmri	16.0	0.75	89.0	-70.0	0.25	10.0	3.0	2.0	3.259091636446314	2.036	n/a	stim	poldrack-single-stim	s644	False	1
224.194	0.764	224.958	-6.86638110215238	end_round	0.764	columbia_card_task_fmri	16.0	0.7142857142857143	71.0	-70.0	0.2857142857142857	10.0	4.0	2.0	4.869222187523114	0.764	3.0	stim	poldrack-single-stim	s644	False	1
225.713	1.5	224.962	n/a	-1.0	2.25	columbia_card_task_fmri	n/a	n/a	-1.0	n/a	n/a	n/a	n/a	n/a	n/a	n/a	n/a	ITI	poldrack-single-stim	s644	False	0
227.217	2.937	230.154	-0.2116191973904739	end_round	2.937	columbia_card_task_fmri	7.0	0.9166666666666666	71.0	-100.0	0.0833333333333333	12.0	1.0	1.0	-4.396665101201563	2.937	0.0	stim	poldrack-single-stim	s644	False	1
230.911	1.5	230.16	n/a	-1.0	2.25	columbia_card_task_fmri	n/a	n/a	-1.0	n/a	n/a	n/a	n/a	n/a	n/a	n/a	n/a	ITI	poldrack-single-stim	s644	False	0
232.415	2.699	235.114	0.0383808026095278	draw_card	2.699	columbia_card_task_fmri	14.0	0.8333333333333334	89.0	-80.0	0.1666666666666666	12.0	1.0	2.0	1.0541863624284886	2.699	n/a	stim	poldrack-single-stim	s644	False	1
235.117	0.457	235.574	-1.3858616216329014	draw_card	0.457	columbia_card_task_fmri	14.0	0.8181818181818181	89.0	-80.0	0.1818181818181818	12.0	2.0	2.0	2.276349912576684	0.457	n/a	stim	poldrack-single-stim	s644	False	1
235.577	0.47	236.047	-3.094952530723807	draw_card	0.47	columbia_card_task_fmri	14.0	0.8	89.0	-80.0	0.2	12.0	3.0	2.0	3.619625183432589	0.47	n/a	stim	poldrack-single-stim	s644	False	1
236.05	2.688	238.738	-5.183841419612698	draw_card	2.688	columbia_card_task_fmri	14.0	0.7777777777777778	89.0	-80.0	0.2222222222222222	12.0	4.0	2.0	5.097696432398124	2.688	n/a	stim	poldrack-single-stim	s644	False	1
238.742	1.099	239.841	-7.794952530723808	end_round	1.099	columbia_card_task_fmri	14.0	0.75	71.0	-80.0	0.25	12.0	5.0	2.0	6.719875986505869	1.099	4.0	stim	poldrack-single-stim	s644	False	1
240.599	1.5	239.848	n/a	-1.0	2.386	columbia_card_task_fmri	n/a	n/a	-1.0	n/a	n/a	n/a	n/a	n/a	n/a	n/a	n/a	ITI	poldrack-single-stim	s644	False	0
242.239	5.755	247.994	1.705047469276192	draw_card	5.755	columbia_card_task_fmri	15.0	0.8333333333333334	89.0	-75.0	0.1666666666666666	12.0	1.0	2.0	-0.4346848788099251	5.755	n/a	stim	poldrack-single-stim	s644	False	1
247.997	0.396	248.393	0.341411105639827	draw_card	0.396	columbia_card_task_fmri	15.0	0.8181818181818181	89.0	-75.0	0.1818181818181818	12.0	2.0	2.0	0.735350321016881	0.396	n/a	stim	poldrack-single-stim	s644	False	1
248.396	0.43	248.826	-1.294952530723808	draw_card	0.43	columbia_card_task_fmri	15.0	0.8	89.0	-75.0	0.2	12.0	3.0	2.0	2.021340614508816	0.43	n/a	stim	poldrack-single-stim	s644	False	1
248.827	0.389	249.216	-3.294952530723806	draw_card	0.389	columbia_card_task_fmri	15.0	0.7777777777777778	89.0	-75.0	0.2222222222222222	12.0	4.0	2.0	3.4363882767543146	0.389	n/a	stim	poldrack-single-stim	s644	False	1
249.22	1.5	250.72	-5.794952530723808	draw_card	1.5	columbia_card_task_fmri	15.0	0.75	89.0	-75.0	0.25	12.0	5.0	2.0	4.989410200259528	1.5	n/a	stim	poldrack-single-stim	s644	False	1
250.723	1.079	251.802	-9.00923824500952	draw_card	1.079	columbia_card_task_fmri	15.0	0.7142857142857143	89.0	-75.0	0.2857142857142857	12.0	6.0	2.0	6.674577410138156	1.079	n/a	stim	poldrack-single-stim	s644	False	1
251.805	1.955	253.76	-13.294952530723808	draw_card	1.955	columbia_card_task_fmri	15.0	0.6666666666666667	89.0	-75.0	0.3333333333333333	12.0	7.0	2.0	8.441640211683705	1.955	n/a	stim	poldrack-single-stim	s644	False	1
253.763	2.48	256.243	-19.29495253072381	draw_card	2.48	columbia_card_task_fmri	15.0	0.6	89.0	-75.0	0.4	12.0	8.0	2.0	10.10475685968791	2.48	n/a	stim	poldrack-single-stim	s644	False	1
256.246	0.93	257.176	-28.29495253072381	draw_card	0.93	columbia_card_task_fmri	15.0	0.5	89.0	-75.0	0.5	12.0	9.0	2.0	11.013276128523051	0.93	n/a	stim	poldrack-single-stim	s644	False	1
257.18	2.771	259.951	-43.294952530723805	end_round	2.771	columbia_card_task_fmri	15.0	0.3333333333333333	71.0	-75.0	0.6666666666666666	12.0	10.0	2.0	8.441640211683705	2.771	9.0	stim	poldrack-single-stim	s644	False	1
260.708	1.5	259.957	n/a	-1.0	2.386	columbia_card_task_fmri	n/a	n/a	-1.0	n/a	n/a	n/a	n/a	n/a	n/a	n/a	n/a	ITI	poldrack-single-stim	s644	False	0
262.348	2.702	265.05	0.7050474692761921	draw_card	2.702	columbia_card_task_fmri	15.0	0.8	89.0	-65.0	0.2	15.0	1.0	3.0	-1.973621762795254	2.702	n/a	stim	poldrack-single-stim	s644	False	1
265.053	0.364	265.417	-0.4378096735809502	draw_card	0.364	columbia_card_task_fmri	15.0	0.7857142857142857	89.0	-65.0	0.2142857142857142	15.0	2.0	3.0	-1.1486902497491371	0.364	n/a	stim	poldrack-single-stim	s644	False	1
265.42	0.399	265.819	-1.7564909922622711	draw_card	0.399	columbia_card_task_fmri	15.0	0.7692307692307692	89.0	-65.0	0.2307692307692307	15.0	3.0	3.0	-0.269912723711883	0.399	n/a	stim	poldrack-single-stim	s644	False	1
265.822	0.469	266.291	-3.294952530723808	draw_card	0.469	columbia_card_task_fmri	15.0	0.75	89.0	-65.0	0.25	15.0	4.0	3.0	0.6639380330060973	0.469	n/a	stim	poldrack-single-stim	s644	False	1
266.294	1.899	268.193	-5.113134348905625	draw_card	1.899	columbia_card_task_fmri	15.0	0.7272727272727273	89.0	-65.0	0.2727272727272727	15.0	5.0	3.0	1.6507021274322824	1.899	5.0	stim	poldrack-single-stim	s644	False	0
268.951	1.5	268.2	n/a	-1.0	2.726	columbia_card_task_fmri	n/a	n/a	-1.0	n/a	n/a	n/a	n/a	n/a	n/a	n/a	n/a	ITI	poldrack-single-stim	s644	False	0
270.93	3.789	274.719	-0.0449525307238078	end_round	3.789	columbia_card_task_fmri	14.0	0.8125	71.0	-70.0	0.1875	16.0	1.0	3.0	-1.188469333988344	3.789	0.0	stim	poldrack-single-stim	s644	False	1
275.476	1.5	274.725	n/a	-1.0	2.454	columbia_card_task_fmri	n/a	n/a	-1.0	n/a	n/a	n/a	n/a	n/a	n/a	n/a	n/a	ITI	poldrack-single-stim	s644	False	0
277.185	4.719	281.904	-0.1074525307238078	draw_card	4.719	columbia_card_task_fmri	11.0	0.6875	89.0	-30.0	0.3125	16.0	1.0	5.0	-14.938670271773123	4.719	1.0	stim	poldrack-single-stim	s644	False	0
282.661	1.5	281.91	n/a	-1.0	2.318	columbia_card_task_fmri	n/a	n/a	-1.0	n/a	n/a	n/a	n/a	n/a	n/a	n/a	n/a	ITI	poldrack-single-stim	s644	False	0
284.234	3.899	288.133	4.705047469276192	draw_card	3.899	columbia_card_task_fmri	15.0	0.8666666666666667	89.0	-75.0	0.1333333333333333	15.0	1.0	2.0	-3.377421928859168	3.899	n/a	stim	poldrack-single-stim	s644	False	1
288.136	0.41	288.546	3.847904612133336	draw_card	0.41	columbia_card_task_fmri	15.0	0.8571428571428572	89.0	-75.0	0.1428571428571428	15.0	2.0	2.0	-2.479453148634949	0.41	n/a	stim	poldrack-single-stim	s644	False	1
288.549	0.362	288.911	2.8588936231223454	draw_card	0.362	columbia_card_task_fmri	15.0	0.8461538461538461	89.0	-75.0	0.1538461538461538	15.0	3.0	2.0	-1.5021717007093471	0.362	n/a	stim	poldrack-single-stim	s644	False	1
288.915	0.423	289.338	1.705047469276192	draw_card	0.423	columbia_card_task_fmri	15.0	0.8333333333333334	89.0	-75.0	0.1666666666666666	15.0	4.0	2.0	-0.4346848788099251	0.423	n/a	stim	poldrack-single-stim	s644	False	1
289.341	0.542	289.883	0.341411105639827	draw_card	0.542	columbia_card_task_fmri	15.0	0.8181818181818181	89.0	-75.0	0.1818181818181818	15.0	5.0	2.0	0.735350321016881	0.542	n/a	stim	poldrack-single-stim	s644	False	1
289.887	0.757	290.644	-1.294952530723808	end_round	0.757	columbia_card_task_fmri	15.0	0.8	71.0	-75.0	0.2	15.0	6.0	2.0	2.021340614508816	0.757	5.0	stim	poldrack-single-stim	s644	False	1
291.402	1.5	290.651	n/a	-1.0	2.318	columbia_card_task_fmri	n/a	n/a	-1.0	n/a	n/a	n/a	n/a	n/a	n/a	n/a	n/a	ITI	poldrack-single-stim	s644	False	0
292.974	3.026	296.0	6.438380802609526	draw_card	3.026	columbia_card_task_fmri	17.0	0.8666666666666667	89.0	-75.0	0.1333333333333333	15.0	1.0	2.0	-2.6985831858461893	3.026	n/a	stim	poldrack-single-stim	s644	False	1
296.004	0.254	296.258	5.562190326419051	draw_card	0.254	columbia_card_task_fmri	17.0	0.8571428571428572	89.0	-75.0	0.1428571428571428	15.0	2.0	2.0	-1.7806001624420489	0.254	n/a	stim	poldrack-single-stim	s644	False	1
296.261	0.235	296.496	4.551201315430038	draw_card	0.235	columbia_card_task_fmri	17.0	0.8461538461538461	89.0	-75.0	0.1538461538461538	15.0	3.0	2.0	-0.7815404501192589	0.235	n/a	stim	poldrack-single-stim	s644	False	1
296.498	0.208	296.706	3.37171413594286	draw_card	0.208	columbia_card_task_fmri	17.0	0.8333333333333334	89.0	-75.0	0.1666666666666666	15.0	4.0	2.0	0.3097307707630889	0.208	n/a	stim	poldrack-single-stim	s644	False	1
296.71	1.19	297.9	1.977774742003464	draw_card	1.19	columbia_card_task_fmri	17.0	0.8181818181818181	89.0	-75.0	0.1818181818181818	15.0	5.0	2.0	1.5058308150005644	1.19	n/a	stim	poldrack-single-stim	s644	False	1
297.903	1.714	299.617	0.3050474692761935	draw_card	1.714	columbia_card_task_fmri	17.0	0.8	89.0	-75.0	0.2	15.0	6.0	2.0	2.820464282952109	1.714	n/a	stim	poldrack-single-stim	s644	False	1
299.621	0.841	300.462	-1.739396975168249	draw_card	0.841	columbia_card_task_fmri	17.0	0.7777777777777778	89.0	-75.0	0.2222222222222222	15.0	7.0	2.0	4.267024439072145	0.841	n/a	stim	poldrack-single-stim	s644	False	1
300.465	0.721	301.186	-4.294952530723808	end_round	0.721	columbia_card_task_fmri	17.0	0.75	71.0	-75.0	0.25	15.0	8.0	2.0	5.854625888528148	0.721	7.0	stim	poldrack-single-stim	s644	False	1
301.945	1.5	301.194	n/a	-1.0	2.59	columbia_card_task_fmri	n/a	n/a	-1.0	n/a	n/a	n/a	n/a	n/a	n/a	n/a	n/a	ITI	poldrack-single-stim	s644	False	0
303.788	5.132	308.92	2.017547469276192	end_round	5.132	columbia_card_task_fmri	2.0	0.9375	71.0	-25.0	0.0625	16.0	1.0	1.0	-27.264606126259377	5.132	0.0	stim	poldrack-single-stim	s644	False	1
309.679	1.5	308.928	n/a	-1.0	2.726	columbia_card_task_fmri	n/a	n/a	-1.0	n/a	n/a	n/a	n/a	n/a	n/a	n/a	n/a	ITI	poldrack-single-stim	s644	False	0
311.66	5.77	317.43	4.205047469276192	draw_card	5.77	columbia_card_task_fmri	9.0	0.9375	89.0	-95.0	0.0625	16.0	1.0	1.0	-8.786947723599656	5.77	n/a	stim	poldrack-single-stim	s644	False	1
317.433	0.833	318.266	3.771714135942859	draw_card	0.833	columbia_card_task_fmri	9.0	0.9333333333333332	89.0	-95.0	0.0666666666666666	16.0	2.0	1.0	-8.020884767750594	0.833	n/a	stim	poldrack-single-stim	s644	False	1
318.269	1.125	319.394	3.276476040704764	end_round	1.125	columbia_card_task_fmri	9.0	0.9285714285714286	71.0	-95.0	0.0714285714285714	16.0	3.0	1.0	-7.1807032760738565	1.125	2.0	stim	poldrack-single-stim	s644	False	1
320.152	1.5	319.401	n/a	-1.0	2.522	columbia_card_task_fmri	n/a	n/a	-1.0	n/a	n/a	n/a	n/a	n/a	n/a	n/a	n/a	ITI	poldrack-single-stim	s644	False	0
321.929	4.606	326.535	5.767547469276192	draw_card	4.606	columbia_card_task_fmri	11.0	0.9375	89.0	-100.0	0.0625	16.0	1.0	1.0	-7.096147118840104	4.606	n/a	stim	poldrack-single-stim	s644	False	1
326.539	0.284	326.823	5.305047469276193	draw_card	0.284	columbia_card_task_fmri	11.0	0.9333333333333332	89.0	-100.0	0.0666666666666666	16.0	2.0	1.0	-6.278300837616555	0.284	n/a	stim	poldrack-single-stim	s644	False	1
326.827	0.249	327.076	4.776476040704765	draw_card	0.249	columbia_card_task_fmri	11.0	0.9285714285714286	89.0	-100.0	0.0714285714285714	16.0	3.0	1.0	-5.381340390212568	0.249	n/a	stim	poldrack-single-stim	s644	False	1
327.08	0.25	327.33	4.166585930814655	draw_card	0.25	columbia_card_task_fmri	11.0	0.9230769230769232	89.0	-100.0	0.0769230769230769	16.0	4.0	1.0	-4.391812466355596	0.25	n/a	stim	poldrack-single-stim	s644	False	1
327.334	1.481	328.815	3.455047469276192	draw_card	1.481	columbia_card_task_fmri	11.0	0.9166666666666666	89.0	-100.0	0.0833333333333333	16.0	5.0	1.0	-3.292890512112581	1.481	5.0	stim	poldrack-single-stim	s644	False	0
329.574	1.5	328.823	n/a	-1.0	3.134	columbia_card_task_fmri	n/a	n/a	-1.0	n/a	n/a	n/a	n/a	n/a	n/a	n/a	n/a	ITI	poldrack-single-stim	s644	False	0
331.963	3.587	335.55	6.330047469276192	draw_card	3.587	columbia_card_task_fmri	16.0	0.875	89.0	-75.0	0.125	16.0	1.0	2.0	-3.8753324064182912	3.587	n/a	stim	poldrack-single-stim	s644	False	1
335.554	0.267	335.821	5.571714135942859	draw_card	0.267	columbia_card_task_fmri	16.0	0.8666666666666667	89.0	-75.0	0.1333333333333333	16.0	2.0	2.0	-3.0380082067135845	0.267	2.0	stim	poldrack-single-stim	s644	False	0
336.579	1.5	335.828	n/a	-1.0	2.386	columbia_card_task_fmri	n/a	n/a	-1.0	n/a	n/a	n/a	n/a	n/a	n/a	n/a	n/a	ITI	poldrack-single-stim	s644	False	0
338.22	2.318	340.538	6.580047469276192	draw_card	2.318	columbia_card_task_fmri	17.0	0.875	89.0	-80.0	0.125	16.0	1.0	2.0	-1.8939997808814653	2.318	n/a	stim	poldrack-single-stim	s644	False	1
340.541	0.49	341.031	5.77171413594286	end_round	0.49	columbia_card_task_fmri	17.0	0.8666666666666667	71.0	-80.0	0.1333333333333333	16.0	2.0	2.0	-1.0013007970313197	0.49	1.0	stim	poldrack-single-stim	s644	False	1
341.787	1.5	341.036	n/a	-1.0	2.386	columbia_card_task_fmri	n/a	n/a	-1.0	n/a	n/a	n/a	n/a	n/a	n/a	n/a	n/a	ITI	poldrack-single-stim	s644	False	0
354.439	4.964	359.403	0.87171413594286	draw_card	4.964	columbia_card_task_fmri	13.0	0.8333333333333334	89.0	-70.0	0.1666666666666666	6.0	1.0	1.0	-3.0397835388517755	4.964	n/a	stim	poldrack-single-stim	s644	False	1
359.407	0.463	359.87	-1.8949525307238075	draw_card	0.463	columbia_card_task_fmri	13.0	0.8	89.0	-70.0	0.2	6.0	2.0	1.0	-0.7752602593742637	0.463	n/a	stim	poldrack-single-stim	s644	False	1
359.874	0.415	360.289	-6.044952530723808	draw_card	0.415	columbia_card_task_fmri	13.0	0.75	89.0	-70.0	0.25	6.0	3.0	1.0	1.9614621055626456	0.415	3.0	stim	poldrack-single-stim	s644	False	0
361.045	1.5	360.294	n/a	-1.0	2.318	columbia_card_task_fmri	n/a	n/a	-1.0	n/a	n/a	n/a	n/a	n/a	n/a	n/a	n/a	ITI	poldrack-single-stim	s644	False	0
362.618	2.375	364.993	0.87171413594286	draw_card	2.375	columbia_card_task_fmri	15.0	0.8333333333333334	89.0	-80.0	0.1666666666666666	6.0	1.0	1.0	1.4264283500841728	2.375	n/a	stim	poldrack-single-stim	s644	False	1
364.996	0.688	365.684	-2.294952530723808	draw_card	0.688	columbia_card_task_fmri	15.0	0.8	89.0	-80.0	0.2	6.0	2.0	1.0	4.019218862356794	0.688	n/a	stim	poldrack-single-stim	s644	False	1
365.686	0.554	366.24	-7.044952530723808	end_round	0.554	columbia_card_task_fmri	15.0	0.75	71.0	-80.0	0.25	6.0	3.0	1.0	7.15251326119013	0.554	2.0	stim	poldrack-single-stim	s644	False	1
366.999	1.5	366.248	n/a	-1.0	2.318	columbia_card_task_fmri	n/a	n/a	-1.0	n/a	n/a	n/a	n/a	n/a	n/a	n/a	n/a	ITI	poldrack-single-stim	s644	False	0
368.571	2.724	371.295	2.538380802609526	draw_card	2.724	columbia_card_task_fmri	16.0	0.8333333333333334	89.0	-75.0	0.1666666666666666	6.0	1.0	1.0	-0.0624822109697831	2.724	n/a	stim	poldrack-single-stim	s644	False	1
371.298	0.22	371.518	-0.4949525307238072	draw_card	0.22	columbia_card_task_fmri	16.0	0.8	89.0	-75.0	0.2	6.0	2.0	1.0	2.420897641630347	0.22	2.0	stim	poldrack-single-stim	s644	False	0
372.277	1.5	371.526	n/a	-1.0	2.862	columbia_card_task_fmri	n/a	n/a	-1.0	n/a	n/a	n/a	n/a	n/a	n/a	n/a	n/a	ITI	poldrack-single-stim	s644	False	0
374.394	2.273	376.667	3.705047469276192	draw_card	2.273	columbia_card_task_fmri	21.0	0.75	89.0	-55.0	0.25	8.0	1.0	2.0	-1.0659084865871975	2.273	n/a	stim	poldrack-single-stim	s644	False	1
376.67	0.356	377.026	0.9907617549904786	draw_card	0.356	columbia_card_task_fmri	21.0	0.7142857142857143	89.0	-55.0	0.2857142857142857	8.0	2.0	2.0	0.3565975894792004	0.356	2.0	stim	poldrack-single-stim	s644	False	0
377.783	1.5	377.032	n/a	-1.0	2.726	columbia_card_task_fmri	n/a	n/a	-1.0	n/a	n/a	n/a	n/a	n/a	n/a	n/a	n/a	ITI	poldrack-single-stim	s644	False	0
379.764	2.065	381.829	4.955047469276192	draw_card	2.065	columbia_card_task_fmri	26.0	0.75	89.0	-65.0	0.25	8.0	1.0	2.0	5.422013601644856	2.065	n/a	stim	poldrack-single-stim	s644	False	1
381.833	0.462	382.295	1.7050474692761957	draw_card	0.462	columbia_card_task_fmri	26.0	0.7142857142857143	89.0	-65.0	0.2857142857142857	8.0	2.0	2.0	7.125938995940963	0.462	2.0	stim	poldrack-single-stim	s644	False	0
383.054	1.5	382.303	n/a	-1.0	2.25	columbia_card_task_fmri	n/a	n/a	-1.0	n/a	n/a	n/a	n/a	n/a	n/a	n/a	n/a	ITI	poldrack-single-stim	s644	False	0
384.558	4.001	388.559	0.038380802609526	draw_card	4.001	columbia_card_task_fmri	15.0	0.7777777777777778	89.0	-60.0	0.2222222222222222	9.0	1.0	2.0	-2.7919522353719124	4.001	n/a	stim	poldrack-single-stim	s644	False	1
388.562	0.548	389.11	-2.044952530723808	draw_card	0.548	columbia_card_task_fmri	15.0	0.75	89.0	-60.0	0.25	9.0	2.0	2.0	-1.498333452205962	0.548	n/a	stim	poldrack-single-stim	s644	False	1
389.113	0.451	389.564	-4.723523959295235	draw_card	0.451	columbia_card_task_fmri	15.0	0.7142857142857143	89.0	-60.0	0.2857142857142857	9.0	3.0	2.0	-0.0945929150753031	0.451	n/a	stim	poldrack-single-stim	s644	False	1
389.568	0.466	390.034	-8.294952530723807	draw_card	0.466	columbia_card_task_fmri	15.0	0.6666666666666667	89.0	-60.0	0.3333333333333333	9.0	4.0	2.0	1.377414650450859	0.466	4.0	stim	poldrack-single-stim	s644	False	0
390.792	1.5	390.041	n/a	-1.0	2.318	columbia_card_task_fmri	n/a	n/a	-1.0	n/a	n/a	n/a	n/a	n/a	n/a	n/a	n/a	ITI	poldrack-single-stim	s644	False	0
392.365	2.013	394.378	4.405047469276193	draw_card	2.013	columbia_card_task_fmri	13.0	0.9	89.0	-90.0	0.1	10.0	1.0	1.0	-3.0720082573963268	2.013	n/a	stim	poldrack-single-stim	s644	False	1
394.382	0.523	394.905	3.2606030248317475	draw_card	0.523	columbia_card_task_fmri	13.0	0.8888888888888888	89.0	-90.0	0.1111111111111111	10.0	2.0	1.0	-1.604362490160291	0.523	n/a	stim	poldrack-single-stim	s644	False	1
394.909	0.394	395.303	1.830047469276192	draw_card	0.394	columbia_card_task_fmri	13.0	0.875	89.0	-90.0	0.125	10.0	3.0	1.0	0.0876794360639579	0.394	3.0	stim	poldrack-single-stim	s644	False	0
396.06	1.5	395.309	n/a	-1.0	2.454	columbia_card_task_fmri	n/a	n/a	-1.0	n/a	n/a	n/a	n/a	n/a	n/a	n/a	n/a	ITI	poldrack-single-stim	s644	False	0
397.769	2.604	400.373	5.705047469276192	draw_card	2.604	columbia_card_task_fmri	15.0	0.9	89.0	-95.0	0.1	10.0	1.0	1.0	-0.9749954351795864	2.604	n/a	stim	poldrack-single-stim	s644	False	1
400.377	0.384	400.761	4.4828252470539685	draw_card	0.384	columbia_card_task_fmri	15.0	0.8888888888888888	89.0	-95.0	0.1111111111111111	10.0	2.0	1.0	0.5926731904641116	0.384	n/a	stim	poldrack-single-stim	s644	False	1
400.765	0.268	401.033	2.955047469276192	draw_card	0.268	columbia_card_task_fmri	15.0	0.875	89.0	-95.0	0.125	10.0	3.0	1.0	2.4000010946587125	0.268	n/a	stim	poldrack-single-stim	s644	False	1
401.037	0.217	401.254	0.9907617549904786	draw_card	0.217	columbia_card_task_fmri	15.0	0.8571428571428572	89.0	-95.0	0.1428571428571428	10.0	4.0	1.0	4.510712342081931	0.217	n/a	stim	poldrack-single-stim	s644	False	1
401.258	0.24	401.498	-1.62828586405714	draw_card	0.24	columbia_card_task_fmri	15.0	0.8333333333333334	89.0	-95.0	0.1666666666666666	10.0	5.0	1.0	7.011008089648982	0.24	n/a	stim	poldrack-single-stim	s644	False	1
401.502	0.422	401.924	-5.294952530723808	draw_card	0.422	columbia_card_task_fmri	15.0	0.8	89.0	-95.0	0.2	10.0	6.0	1.0	10.014009459036345	0.422	n/a	stim	poldrack-single-stim	s644	False	1
401.927	0.392	402.319	-10.794952530723808	draw_card	0.392	columbia_card_task_fmri	15.0	0.75	89.0	-95.0	0.25	10.0	7.0	1.0	13.642890623218063	0.392	7.0	stim	poldrack-single-stim	s644	False	0
403.078	1.5	402.327	n/a	-1.0	2.522	columbia_card_task_fmri	n/a	n/a	-1.0	n/a	n/a	n/a	n/a	n/a	n/a	n/a	n/a	ITI	poldrack-single-stim	s644	False	0
404.855	2.475	407.33	1.5050474692761928	draw_card	2.475	columbia_card_task_fmri	16.0	0.8	89.0	-65.0	0.2	10.0	1.0	2.0	-1.5741813860587257	2.475	n/a	stim	poldrack-single-stim	s644	False	1
407.334	0.285	407.619	-0.2949525307238061	draw_card	0.285	columbia_card_task_fmri	16.0	0.7777777777777778	89.0	-65.0	0.2222222222222222	10.0	2.0	2.0	-0.3009600463173854	0.285	n/a	stim	poldrack-single-stim	s644	False	1
407.623	0.412	408.035	-2.544952530723808	end_round	0.412	columbia_card_task_fmri	16.0	0.75	71.0	-65.0	0.25	10.0	3.0	2.0	1.0964336179672003	0.412	2.0	stim	poldrack-single-stim	s644	False	1
408.79	1.5	408.039	n/a	-1.0	2.318	columbia_card_task_fmri	n/a	n/a	-1.0	n/a	n/a	n/a	n/a	n/a	n/a	n/a	n/a	ITI	poldrack-single-stim	s644	False	0
410.363	2.235	412.598	0.2050474692761921	draw_card	2.235	columbia_card_task_fmri	7.0	0.9166666666666666	89.0	-95.0	0.0833333333333333	12.0	1.0	1.0	-5.776188957282479	2.235	n/a	stim	poldrack-single-stim	s644	False	1
412.602	0.252	412.854	-0.5676798034510813	draw_card	0.252	columbia_card_task_fmri	7.0	0.9090909090909092	89.0	-95.0	0.0909090909090909	12.0	2.0	1.0	-4.646546001579324	0.252	n/a	stim	poldrack-single-stim	s644	False	1
412.858	0.261	413.119	-1.494952530723808	draw_card	0.261	columbia_card_task_fmri	7.0	0.9	89.0	-95.0	0.1	12.0	3.0	1.0	-3.3715481235210483	0.261	n/a	stim	poldrack-single-stim	s644	False	1
413.123	0.445	413.568	-2.628285864057142	draw_card	0.445	columbia_card_task_fmri	7.0	0.8888888888888888	89.0	-95.0	0.1111111111111111	12.0	4.0	1.0	-1.918192839916479	0.445	n/a	stim	poldrack-single-stim	s644	False	1
413.572	0.246	413.818	-4.044952530723808	draw_card	0.246	columbia_card_task_fmri	7.0	0.875	89.0	-95.0	0.125	12.0	5.0	1.0	-0.2426219134974729	0.246	n/a	stim	poldrack-single-stim	s644	False	1
413.822	0.607	414.429	-5.86638110215238	end_round	0.607	columbia_card_task_fmri	7.0	0.8571428571428572	71.0	-95.0	0.1428571428571428	12.0	6.0	1.0	1.7142526381858545	0.607	5.0	stim	poldrack-single-stim	s644	False	1
415.187	1.5	414.436	n/a	-1.0	2.522	columbia_card_task_fmri	n/a	n/a	-1.0	n/a	n/a	n/a	n/a	n/a	n/a	n/a	n/a	ITI	poldrack-single-stim	s644	False	0
416.963	2.831	419.794	0.87171413594286	draw_card	2.831	columbia_card_task_fmri	14.0	0.8333333333333334	89.0	-75.0	0.1666666666666666	12.0	1.0	2.0	-0.8068768859993156	2.831	n/a	stim	poldrack-single-stim	s644	False	1
419.799	0.219	420.018	-0.4767707125419913	draw_card	0.219	columbia_card_task_fmri	14.0	0.8181818181818181	89.0	-75.0	0.1818181818181818	12.0	2.0	2.0	0.3501253616969251	0.219	n/a	stim	poldrack-single-stim	s644	False	1
420.021	0.219	420.24	-2.094952530723807	draw_card	0.219	columbia_card_task_fmri	14.0	0.8	89.0	-75.0	0.2	12.0	3.0	2.0	1.6217935249321371	0.219	n/a	stim	poldrack-single-stim	s644	False	1
420.245	0.496	420.741	-4.072730308501583	end_round	0.496	columbia_card_task_fmri	14.0	0.7777777777777778	71.0	-75.0	0.2222222222222222	12.0	4.0	2.0	3.021084385529321	0.496	3.0	stim	poldrack-single-stim	s644	False	1
421.5	1.5	420.749	n/a	-1.0	2.998	columbia_card_task_fmri	n/a	n/a	-1.0	n/a	n/a	n/a	n/a	n/a	n/a	n/a	n/a	ITI	poldrack-single-stim	s644	False	0
423.753	3.509	427.262	2.538380802609526	draw_card	3.509	columbia_card_task_fmri	15.0	0.8333333333333334	89.0	-70.0	0.1666666666666666	12.0	1.0	2.0	-2.295530803920453	3.509	n/a	stim	poldrack-single-stim	s644	False	1
427.266	0.184	427.45	1.2505020147307353	draw_card	0.184	columbia_card_task_fmri	15.0	0.8181818181818181	89.0	-70.0	0.1818181818181818	12.0	2.0	2.0	-1.1906641861831275	0.184	n/a	stim	poldrack-single-stim	s644	False	1
427.454	0.231	427.685	-0.2949525307238079	draw_card	0.231	columbia_card_task_fmri	15.0	0.8	89.0	-70.0	0.2	12.0	3.0	2.0	0.0237115399451184	0.231	n/a	stim	poldrack-single-stim	s644	False	1
427.688	0.662	428.35	-2.183841419612697	end_round	0.662	columbia_card_task_fmri	15.0	0.7777777777777778	71.0	-70.0	0.2222222222222222	12.0	4.0	2.0	1.3599711934431866	0.662	3.0	stim	poldrack-single-stim	s644	False	1
429.107	1.5	428.356	n/a	-1.0	2.318	columbia_card_task_fmri	n/a	n/a	-1.0	n/a	n/a	n/a	n/a	n/a	n/a	n/a	n/a	ITI	poldrack-single-stim	s644	False	0
430.679	2.946	433.625	0.5050474692761928	draw_card	2.946	columbia_card_task_fmri	16.0	0.8	89.0	-70.0	0.2	15.0	1.0	3.0	0.4232153398431251	2.946	1.0	stim	poldrack-single-stim	s644	False	0
434.385	1.5	433.634	n/a	-1.0	2.25	columbia_card_task_fmri	n/a	n/a	-1.0	n/a	n/a	n/a	n/a	n/a	n/a	n/a	n/a	ITI	poldrack-single-stim	s644	False	0
435.89	1.587	437.477	0.8925474692761921	draw_card	1.587	columbia_card_task_fmri	14.0	0.8125	89.0	-65.0	0.1875	16.0	1.0	3.0	-3.137231210950436	1.587	1.0	stim	poldrack-single-stim	s644	False	0
438.236	1.5	437.485	n/a	-1.0	2.454	columbia_card_task_fmri	n/a	n/a	-1.0	n/a	n/a	n/a	n/a	n/a	n/a	n/a	n/a	ITI	poldrack-single-stim	s644	False	0
439.944	0.955	440.899	0.6425474692761921	draw_card	0.955	columbia_card_task_fmri	16.0	0.8125	89.0	-75.0	0.1875	16.0	1.0	3.0	1.5403132551427774	0.955	1.0	stim	poldrack-single-stim	s644	False	0
441.658	1.5	440.907	n/a	-1.0	2.318	columbia_card_task_fmri	n/a	n/a	-1.0	n/a	n/a	n/a	n/a	n/a	n/a	n/a	n/a	ITI	poldrack-single-stim	s644	False	0
443.23	1.648	444.878	4.905047469276193	draw_card	1.648	columbia_card_task_fmri	16.0	0.8666666666666667	89.0	-80.0	0.1333333333333333	15.0	1.0	2.0	-1.3407771568435862	1.648	n/a	stim	poldrack-single-stim	s644	False	1
444.881	0.52	445.401	3.99076175499048	draw_card	0.52	columbia_card_task_fmri	16.0	0.8571428571428572	89.0	-80.0	0.1428571428571428	15.0	2.0	2.0	-0.3827692868763463	0.52	2.0	stim	poldrack-single-stim	s644	False	0
446.16	1.5	445.409	n/a	-1.0	2.318	columbia_card_task_fmri	n/a	n/a	-1.0	n/a	n/a	n/a	n/a	n/a	n/a	n/a	n/a	ITI	poldrack-single-stim	s644	False	0
447.733	3.694	451.427	5.77171413594286	draw_card	3.694	columbia_card_task_fmri	17.0	0.8666666666666667	89.0	-80.0	0.1333333333333333	15.0	1.0	2.0	-1.0013007970313197	3.694	n/a	stim	poldrack-single-stim	s644	False	1
451.431	0.261	451.692	4.847904612133338	draw_card	0.261	columbia_card_task_fmri	17.0	0.8571428571428572	89.0	-80.0	0.1428571428571428	15.0	2.0	2.0	-0.0332874194345436	0.261	2.0	stim	poldrack-single-stim	s644	False	0
452.451	1.5	451.7	n/a	-1.0	2.59	columbia_card_task_fmri	n/a	n/a	-1.0	n/a	n/a	n/a	n/a	n/a	n/a	n/a	n/a	ITI	poldrack-single-stim	s644	False	0
454.295	4.967	459.262	1.705047469276192	end_round	4.967	columbia_card_task_fmri	1.0	0.9375	71.0	-15.0	0.0625	16.0	1.0	1.0	-29.78732594390715	4.967	0.0	stim	poldrack-single-stim	s644	False	1
460.019	1.5	459.268	n/a	-1.0	2.25	columbia_card_task_fmri	n/a	n/a	-1.0	n/a	n/a	n/a	n/a	n/a	n/a	n/a	n/a	ITI	poldrack-single-stim	s644	False	0
461.524	2.508	464.032	4.830047469276192	draw_card	2.508	columbia_card_task_fmri	10.0	0.9375	89.0	-100.0	0.0625	16.0	1.0	1.0	-7.337718256992687	2.508	n/a	stim	poldrack-single-stim	s644	False	1
464.036	0.263	464.299	4.37171413594286	draw_card	0.263	columbia_card_task_fmri	10.0	0.9333333333333332	89.0	-100.0	0.0666666666666666	16.0	2.0	1.0	-6.527268769348488	0.263	n/a	stim	poldrack-single-stim	s644	False	1
464.303	0.206	464.509	3.847904612133336	draw_card	0.206	columbia_card_task_fmri	10.0	0.9285714285714286	89.0	-100.0	0.0714285714285714	16.0	3.0	1.0	-5.638418750748841	0.206	n/a	stim	poldrack-single-stim	s644	False	1
464.514	0.213	464.727	3.2435090077377318	draw_card	0.213	columbia_card_task_fmri	10.0	0.9230769230769232	89.0	-100.0	0.0769230769230769	16.0	4.0	1.0	-4.657836175945192	0.213	n/a	stim	poldrack-single-stim	s644	False	1
464.731	0.715	465.446	2.538380802609526	draw_card	0.715	columbia_card_task_fmri	10.0	0.9166666666666666	89.0	-100.0	0.0833333333333333	16.0	5.0	1.0	-3.568846178647057	0.715	n/a	stim	poldrack-single-stim	s644	False	1
465.451	0.33	465.781	1.7050474692761903	draw_card	0.33	columbia_card_task_fmri	10.0	0.9090909090909092	89.0	-100.0	0.0909090909090909	16.0	6.0	1.0	-2.3503044603071075	0.33	n/a	stim	poldrack-single-stim	s644	False	1
465.785	0.292	466.077	0.7050474692761921	draw_card	0.292	columbia_card_task_fmri	10.0	0.9	89.0	-100.0	0.1	16.0	7.0	1.0	-0.9749954351795864	0.292	n/a	stim	poldrack-single-stim	s644	False	1
466.081	0.3	466.381	-0.5171747529460293	draw_card	0.3	columbia_card_task_fmri	10.0	0.8888888888888888	89.0	-100.0	0.1111111111111111	16.0	8.0	1.0	0.5926731904641116	0.3	n/a	stim	poldrack-single-stim	s644	False	1
466.385	0.661	467.046	-2.044952530723808	draw_card	0.661	columbia_card_task_fmri	10.0	0.875	89.0	-100.0	0.125	16.0	9.0	1.0	2.4000010946587125	0.661	n/a	stim	poldrack-single-stim	s644	False	1
467.05	0.413	467.463	-4.00923824500952	draw_card	0.413	columbia_card_task_fmri	10.0	0.8571428571428572	89.0	-100.0	0.1428571428571428	16.0	10.0	1.0	4.510712342081931	0.413	n/a	stim	poldrack-single-stim	s644	False	1
467.467	2.441	469.908	-6.628285864057139	end_round	2.441	columbia_card_task_fmri	10.0	0.8333333333333334	71.0	-100.0	0.1666666666666666	16.0	11.0	1.0	7.011008089648982	2.441	10.0	stim	poldrack-single-stim	s644	False	1
470.667	1.5	469.916	n/a	-1.0	2.25	columbia_card_task_fmri	n/a	n/a	-1.0	n/a	n/a	n/a	n/a	n/a	n/a	n/a	n/a	ITI	poldrack-single-stim	s644	False	0
472.172	7.82	479.992	5.455047469276192	draw_card	7.82	columbia_card_task_fmri	15.0	0.875	89.0	-75.0	0.125	16.0	1.0	2.0	-4.205515962120355	7.82	n/a	stim	poldrack-single-stim	s644	False	1
479.995	0.248	480.243	4.705047469276192	draw_card	0.248	columbia_card_task_fmri	15.0	0.8666666666666667	89.0	-75.0	0.1333333333333333	16.0	2.0	2.0	-3.377421928859168	0.248	n/a	stim	poldrack-single-stim	s644	False	1
480.247	0.242	480.489	3.847904612133336	draw_card	0.242	columbia_card_task_fmri	15.0	0.8571428571428572	89.0	-75.0	0.1428571428571428	16.0	3.0	2.0	-2.479453148634949	0.242	n/a	stim	poldrack-single-stim	s644	False	1
480.494	0.221	480.715	2.8588936231223454	draw_card	0.221	columbia_card_task_fmri	15.0	0.8461538461538461	89.0	-75.0	0.1538461538461538	16.0	4.0	2.0	-1.5021717007093471	0.221	n/a	stim	poldrack-single-stim	s644	False	1
480.718	0.339	481.057	1.705047469276192	draw_card	0.339	columbia_card_task_fmri	15.0	0.8333333333333334	89.0	-75.0	0.1666666666666666	16.0	5.0	2.0	-0.4346848788099251	0.339	n/a	stim	poldrack-single-stim	s644	False	1
481.062	0.382	481.444	0.341411105639827	draw_card	0.382	columbia_card_task_fmri	15.0	0.8181818181818181	89.0	-75.0	0.1818181818181818	16.0	6.0	2.0	0.735350321016881	0.382	n/a	stim	poldrack-single-stim	s644	False	1
481.448	1.151	482.599	-1.294952530723808	end_round	1.151	columbia_card_task_fmri	15.0	0.8	71.0	-75.0	0.2	16.0	7.0	2.0	2.021340614508816	1.151	6.0	stim	poldrack-single-stim	s644	False	1
483.358	1.5	482.607	n/a	-1.0	2.522	columbia_card_task_fmri	n/a	n/a	-1.0	n/a	n/a	n/a	n/a	n/a	n/a	n/a	n/a	ITI	poldrack-single-stim	s644	False	0
485.134	7.736	492.87	5.705047469276192	draw_card	7.736	columbia_card_task_fmri	16.0	0.875	89.0	-80.0	0.125	16.0	1.0	2.0	-2.224247703987828	7.736	n/a	stim	poldrack-single-stim	s644	False	1
492.874	0.276	493.15	4.905047469276193	draw_card	0.276	columbia_card_task_fmri	16.0	0.8666666666666667	89.0	-80.0	0.1333333333333333	16.0	2.0	2.0	-1.3407771568435862	0.276	n/a	stim	poldrack-single-stim	s644	False	1
493.155	0.21	493.365	3.99076175499048	draw_card	0.21	columbia_card_task_fmri	16.0	0.8571428571428572	89.0	-80.0	0.1428571428571428	16.0	3.0	2.0	-0.3827692868763463	0.21	n/a	stim	poldrack-single-stim	s644	False	1
493.369	0.259	493.628	2.935816700045422	draw_card	0.259	columbia_card_task_fmri	16.0	0.8461538461538461	89.0	-80.0	0.1538461538461538	16.0	4.0	2.0	0.659843219610508	0.259	n/a	stim	poldrack-single-stim	s644	False	1
493.632	0.219	493.851	1.705047469276194	draw_card	0.219	columbia_card_task_fmri	16.0	0.8333333333333334	89.0	-80.0	0.1666666666666666	16.0	5.0	2.0	1.7986794056479738	0.219	n/a	stim	poldrack-single-stim	s644	False	1
493.856	0.242	494.098	0.2505020147307353	draw_card	0.242	columbia_card_task_fmri	16.0	0.8181818181818181	89.0	-80.0	0.1818181818181818	16.0	6.0	2.0	3.046905206293509	0.242	n/a	stim	poldrack-single-stim	s644	False	1
494.103	0.345	494.448	-1.4949525307238072	draw_card	0.345	columbia_card_task_fmri	16.0	0.8	89.0	-80.0	0.2	16.0	7.0	2.0	4.418820993676846	0.345	n/a	stim	poldrack-single-stim	s644	False	1
494.452	0.732	495.184	-3.628285864057142	end_round	0.732	columbia_card_task_fmri	16.0	0.7777777777777778	71.0	-80.0	0.2222222222222222	16.0	8.0	2.0	5.928402021507779	0.732	7.0	stim	poldrack-single-stim	s644	False	1
495.942	1.5	495.191	n/a	-1.0	2.454	columbia_card_task_fmri	n/a	n/a	-1.0	n/a	n/a	n/a	n/a	n/a	n/a	n/a	n/a	ITI	poldrack-single-stim	s644	False	0
497.652	5.301	502.953	2.892547469276192	draw_card	5.301	columbia_card_task_fmri	4.0	0.6875	89.0	-5.0	0.3125	16.0	1.0	5.0	-29.51240470311915	5.301	n/a	stim	poldrack-single-stim	s644	False	1
502.958	0.448	503.406	2.705047469276193	draw_card	0.448	columbia_card_task_fmri	4.0	0.6666666666666667	89.0	-5.0	0.3333333333333333	16.0	2.0	5.0	-29.446576624048216	0.448	2.0	stim	poldrack-single-stim	s644	False	0
504.167	1.5	503.416	n/a	-1.0	2.25	columbia_card_task_fmri	n/a	n/a	-1.0	n/a	n/a	n/a	n/a	n/a	n/a	n/a	n/a	ITI	poldrack-single-stim	s644	False	0
505.672	4.603	510.275	0.0383808026095278	end_round	4.603	columbia_card_task_fmri	14.0	0.8333333333333334	71.0	-80.0	0.1666666666666666	6.0	1.0	1.0	1.0541863624284886	4.603	0.0	stim	poldrack-single-stim	s644	False	1
511.03	1.5	510.279	n/a	-1.0	2.454	columbia_card_task_fmri	n/a	n/a	-1.0	n/a	n/a	n/a	n/a	n/a	n/a	n/a	n/a	ITI	poldrack-single-stim	s644	False	0
512.738	3.561	516.299	1.705047469276192	draw_card	3.561	columbia_card_task_fmri	15.0	0.8333333333333334	89.0	-75.0	0.1666666666666666	6.0	1.0	1.0	-0.4346848788099251	3.561	n/a	stim	poldrack-single-stim	s644	False	1
516.303	0.252	516.555	-1.294952530723808	draw_card	0.252	columbia_card_task_fmri	15.0	0.8	89.0	-75.0	0.2	6.0	2.0	1.0	2.021340614508816	0.252	2.0	stim	poldrack-single-stim	s644	False	0
517.314	1.5	516.563	n/a	-1.0	2.454	columbia_card_task_fmri	n/a	n/a	-1.0	n/a	n/a	n/a	n/a	n/a	n/a	n/a	n/a	ITI	poldrack-single-stim	s644	False	0
519.024	2.41	521.434	3.37171413594286	draw_card	2.41	columbia_card_task_fmri	16.0	0.8333333333333334	89.0	-70.0	0.1666666666666666	6.0	1.0	1.0	-1.923385234978156	2.41	n/a	stim	poldrack-single-stim	s644	False	1
521.439	0.331	521.77	0.5050474692761928	draw_card	0.331	columbia_card_task_fmri	16.0	0.8	89.0	-70.0	0.2	6.0	2.0	1.0	0.4232153398431251	0.331	n/a	stim	poldrack-single-stim	s644	False	1
521.775	0.307	522.082	-3.794952530723808	draw_card	0.307	columbia_card_task_fmri	16.0	0.75	89.0	-70.0	0.25	6.0	3.0	1.0	3.259091636446314	0.307	n/a	stim	poldrack-single-stim	s644	False	1
522.087	0.281	522.368	-10.961619197390473	draw_card	0.281	columbia_card_task_fmri	16.0	0.6666666666666667	89.0	-70.0	0.3333333333333333	6.0	4.0	1.0	6.557613669211747	0.281	4.0	stim	poldrack-single-stim	s644	False	0
523.127	1.5	522.376	n/a	-1.0	2.522	columbia_card_task_fmri	n/a	n/a	-1.0	n/a	n/a	n/a	n/a	n/a	n/a	n/a	n/a	ITI	poldrack-single-stim	s644	False	0
524.905	3.422	528.327	3.955047469276192	draw_card	3.422	columbia_card_task_fmri	23.0	0.75	89.0	-60.0	0.25	8.0	1.0	2.0	1.9614621055626456	3.422	n/a	stim	poldrack-single-stim	s644	False	1
528.333	0.26	528.593	0.9907617549904804	draw_card	0.26	columbia_card_task_fmri	23.0	0.7142857142857143	89.0	-60.0	0.2857142857142857	8.0	2.0	2.0	3.5153106509538787	0.26	2.0	stim	poldrack-single-stim	s644	False	0
529.352	1.5	528.601	n/a	-1.0	2.454	columbia_card_task_fmri	n/a	n/a	-1.0	n/a	n/a	n/a	n/a	n/a	n/a	n/a	n/a	ITI	poldrack-single-stim	s644	False	0
531.061	1.939	533.0	4.455047469276192	draw_card	1.939	columbia_card_task_fmri	27.0	0.75	89.0	-70.0	0.25	8.0	1.0	2.0	8.017811003697567	1.939	n/a	stim	poldrack-single-stim	s644	False	1
533.006	0.216	533.222	0.9907617549904768	end_round	0.216	columbia_card_task_fmri	27.0	0.7142857142857143	71.0	-70.0	0.2857142857142857	8.0	2.0	2.0	9.834278199184103	0.216	1.0	stim	poldrack-single-stim	s644	False	1
533.981	1.5	533.23	n/a	-1.0	2.658	columbia_card_task_fmri	n/a	n/a	-1.0	n/a	n/a	n/a	n/a	n/a	n/a	n/a	n/a	ITI	poldrack-single-stim	s644	False	0
535.895	4.083	539.978	-0.2949525307238061	draw_card	4.083	columbia_card_task_fmri	16.0	0.7777777777777778	89.0	-65.0	0.2222222222222222	9.0	1.0	2.0	-0.3009600463173854	4.083	n/a	stim	poldrack-single-stim	s644	False	1
539.983	0.412	540.395	-2.544952530723808	end_round	0.412	columbia_card_task_fmri	16.0	0.75	71.0	-65.0	0.25	9.0	2.0	2.0	1.0964336179672003	0.412	1.0	stim	poldrack-single-stim	s644	False	1
541.155	1.5	540.404	n/a	-1.0	2.386	columbia_card_task_fmri	n/a	n/a	-1.0	n/a	n/a	n/a	n/a	n/a	n/a	n/a	n/a	ITI	poldrack-single-stim	s644	False	0
542.796	2.503	545.299	4.905047469276193	draw_card	2.503	columbia_card_task_fmri	13.0	0.9	89.0	-85.0	0.1	10.0	1.0	1.0	-4.569613912414823	2.503	n/a	stim	poldrack-single-stim	s644	False	1
545.306	0.228	545.534	3.816158580387303	draw_card	0.228	columbia_card_task_fmri	13.0	0.8888888888888888	89.0	-85.0	0.1111111111111111	10.0	2.0	1.0	-3.173424779127185	0.228	n/a	stim	poldrack-single-stim	s644	False	1
545.54	0.388	545.928	2.455047469276192	draw_card	0.388	columbia_card_task_fmri	13.0	0.875	89.0	-85.0	0.125	10.0	3.0	1.0	-1.5637422658256313	0.388	n/a	stim	poldrack-single-stim	s644	False	1
545.934	0.798	546.732	0.7050474692761939	draw_card	0.798	columbia_card_task_fmri	13.0	0.8571428571428572	89.0	-85.0	0.1428571428571428	10.0	4.0	1.0	0.3162035175277609	0.798	n/a	stim	poldrack-single-stim	s644	False	1
546.737	1.542	548.279	-1.62828586405714	end_round	1.542	columbia_card_task_fmri	13.0	0.8333333333333334	71.0	-85.0	0.1666666666666666	10.0	5.0	1.0	2.543207612615781	1.542	4.0	stim	poldrack-single-stim	s644	False	1
549.038	1.5	548.287	n/a	-1.0	2.522	columbia_card_task_fmri	n/a	n/a	-1.0	n/a	n/a	n/a	n/a	n/a	n/a	n/a	n/a	ITI	poldrack-single-stim	s644	False	0
550.814	2.199	553.013	-0.0949525307238068	draw_card	2.199	columbia_card_task_fmri	14.0	0.8	89.0	-65.0	0.2	10.0	1.0	2.0	-2.373048002326186	2.199	1.0	stim	poldrack-single-stim	s644	False	0
553.773	1.5	553.022	n/a	-1.0	2.59	columbia_card_task_fmri	n/a	n/a	-1.0	n/a	n/a	n/a	n/a	n/a	n/a	n/a	n/a	ITI	poldrack-single-stim	s644	False	0
555.619	2.437	558.056	1.3050474692761935	end_round	2.437	columbia_card_task_fmri	17.0	0.8	71.0	-70.0	0.2	10.0	1.0	2.0	0.8227305259083053	2.437	0.0	stim	poldrack-single-stim	s644	False	1
558.816	1.5	558.065	n/a	-1.0	2.386	columbia_card_task_fmri	n/a	n/a	-1.0	n/a	n/a	n/a	n/a	n/a	n/a	n/a	n/a	ITI	poldrack-single-stim	s644	False	0
560.459	2.372	562.831	0.038380802609526	end_round	2.372	columbia_card_task_fmri	13.0	0.8333333333333334	71.0	-75.0	0.1666666666666666	12.0	1.0	2.0	-1.1790578700701388	2.372	0.0	stim	poldrack-single-stim	s644	False	1
563.591	1.5	562.84	n/a	-1.0	2.59	columbia_card_task_fmri	n/a	n/a	-1.0	n/a	n/a	n/a	n/a	n/a	n/a	n/a	n/a	ITI	poldrack-single-stim	s644	False	0
565.437	1.361	566.798	1.705047469276194	draw_card	1.361	columbia_card_task_fmri	14.0	0.8333333333333334	89.0	-70.0	0.1666666666666666	12.0	1.0	2.0	-2.667663723822841	1.361	n/a	stim	poldrack-single-stim	s644	False	1
566.804	0.288	567.092	0.4323201965489169	draw_card	0.288	columbia_card_task_fmri	14.0	0.8181818181818181	89.0	-70.0	0.1818181818181818	12.0	2.0	2.0	-1.5758320366067124	0.288	2.0	stim	poldrack-single-stim	s644	False	0
567.852	1.5	567.101	n/a	-1.0	2.318	columbia_card_task_fmri	n/a	n/a	-1.0	n/a	n/a	n/a	n/a	n/a	n/a	n/a	n/a	ITI	poldrack-single-stim	s644	False	0
569.426	3.555	572.981	1.705047469276194	draw_card	3.555	columbia_card_task_fmri	16.0	0.8333333333333334	89.0	-80.0	0.1666666666666666	12.0	1.0	2.0	1.7986794056479738	3.555	n/a	stim	poldrack-single-stim	s644	False	1
572.986	0.374	573.36	0.2505020147307353	draw_card	0.374	columbia_card_task_fmri	16.0	0.8181818181818181	89.0	-80.0	0.1818181818181818	12.0	2.0	2.0	3.046905206293509	0.374	n/a	stim	poldrack-single-stim	s644	False	1
573.365	0.406	573.771	-1.4949525307238072	draw_card	0.406	columbia_card_task_fmri	16.0	0.8	89.0	-80.0	0.2	12.0	3.0	2.0	4.418820993676846	0.406	n/a	stim	poldrack-single-stim	s644	False	1
573.777	0.497	574.274	-3.628285864057142	draw_card	0.497	columbia_card_task_fmri	16.0	0.7777777777777778	89.0	-80.0	0.2222222222222222	12.0	4.0	2.0	5.928402021507779	0.497	n/a	stim	poldrack-single-stim	s644	False	1
574.28	0.594	574.874	-6.294952530723808	draw_card	0.594	columbia_card_task_fmri	16.0	0.75	89.0	-80.0	0.25	12.0	5.0	2.0	7.585158347316444	0.594	n/a	stim	poldrack-single-stim	s644	False	1
574.879	0.872	575.751	-9.723523959295234	draw_card	0.872	columbia_card_task_fmri	16.0	0.7142857142857143	89.0	-80.0	0.2857142857142857	12.0	6.0	2.0	9.38286939153381	0.872	n/a	stim	poldrack-single-stim	s644	False	1
575.756	1.731	577.487	-14.294952530723805	draw_card	1.731	columbia_card_task_fmri	16.0	0.6666666666666667	89.0	-80.0	0.3333333333333333	12.0	7.0	2.0	11.267928423118228	1.731	7.0	stim	poldrack-single-stim	s644	False	0
578.246	1.5	577.495	n/a	-1.0	2.25	columbia_card_task_fmri	n/a	n/a	-1.0	n/a	n/a	n/a	n/a	n/a	n/a	n/a	n/a	ITI	poldrack-single-stim	s644	False	0
579.75	2.22	581.97	1.5050474692761928	draw_card	2.22	columbia_card_task_fmri	16.0	0.8	89.0	-65.0	0.2	15.0	1.0	3.0	-1.5741813860587257	2.22	n/a	stim	poldrack-single-stim	s644	False	1
581.976	0.262	582.238	0.3479046121333362	draw_card	0.262	columbia_card_task_fmri	16.0	0.7857142857142857	89.0	-65.0	0.2142857142857142	15.0	2.0	3.0	-0.7389099435773971	0.262	2.0	stim	poldrack-single-stim	s644	False	0
582.998	1.5	582.247	n/a	-1.0	2.454	columbia_card_task_fmri	n/a	n/a	-1.0	n/a	n/a	n/a	n/a	n/a	n/a	n/a	n/a	ITI	poldrack-single-stim	s644	False	0
584.709	4.602	589.311	-0.1699525307238079	draw_card	4.602	columbia_card_task_fmri	15.0	0.8125	89.0	-75.0	0.1875	16.0	1.0	3.0	1.1504548099070888	4.602	n/a	stim	poldrack-single-stim	s644	False	1
589.316	0.265	589.581	-1.294952530723808	draw_card	0.265	columbia_card_task_fmri	15.0	0.8	89.0	-75.0	0.2	16.0	2.0	3.0	2.021340614508816	0.265	n/a	stim	poldrack-single-stim	s644	False	1
589.587	0.215	589.802	-2.5806668164380926	draw_card	0.215	columbia_card_task_fmri	15.0	0.7857142857142857	89.0	-75.0	0.2142857142857142	16.0	3.0	3.0	2.9496574701854428	0.215	n/a	stim	poldrack-single-stim	s644	False	1
589.807	0.327	590.134	-4.064183299954582	draw_card	0.327	columbia_card_task_fmri	15.0	0.7692307692307692	89.0	-75.0	0.2307692307692307	16.0	4.0	3.0	3.9385541759853737	0.327	n/a	stim	poldrack-single-stim	s644	False	1
590.14	0.475	590.615	-5.794952530723808	end_round	0.475	columbia_card_task_fmri	15.0	0.75	71.0	-75.0	0.25	16.0	5.0	3.0	4.989410200259528	0.475	4.0	stim	poldrack-single-stim	s644	False	1
591.376	1.5	590.625	n/a	-1.0	3.27	columbia_card_task_fmri	n/a	n/a	-1.0	n/a	n/a	n/a	n/a	n/a	n/a	n/a	n/a	ITI	poldrack-single-stim	s644	False	0
593.902	7.677	601.579	0.3925474692761921	end_round	7.677	columbia_card_task_fmri	14.0	0.6875	71.0	-35.0	0.3125	16.0	1.0	5.0	-11.24299560108872	7.677	0.0	stim	poldrack-single-stim	s644	False	1
602.339	1.5	601.588	n/a	-1.0	2.25	columbia_card_task_fmri	n/a	n/a	-1.0	n/a	n/a	n/a	n/a	n/a	n/a	n/a	n/a	ITI	poldrack-single-stim	s644	False	0
603.846	7.86	611.706	5.571714135942859	end_round	7.86	columbia_card_task_fmri	16.0	0.8666666666666667	71.0	-75.0	0.1333333333333333	15.0	1.0	2.0	-3.0380082067135845	7.86	0.0	stim	poldrack-single-stim	s644	False	1
612.467	1.5	611.716	n/a	-1.0	2.25	columbia_card_task_fmri	n/a	n/a	-1.0	n/a	n/a	n/a	n/a	n/a	n/a	n/a	n/a	ITI	poldrack-single-stim	s644	False	0
613.975	3.372	617.347	6.238380802609525	draw_card	3.372	columbia_card_task_fmri	16.0	0.8666666666666667	89.0	-70.0	0.1333333333333333	15.0	1.0	2.0	-4.73495597302156	3.372	n/a	stim	poldrack-single-stim	s644	False	1
617.353	0.313	617.666	5.419333183561907	draw_card	0.313	columbia_card_task_fmri	16.0	0.8571428571428572	89.0	-70.0	0.1428571428571428	15.0	2.0	2.0	-3.877019738211605	0.313	2.0	stim	poldrack-single-stim	s644	False	0
618.426	1.5	617.675	n/a	-1.0	2.318	columbia_card_task_fmri	n/a	n/a	-1.0	n/a	n/a	n/a	n/a	n/a	n/a	n/a	n/a	ITI	poldrack-single-stim	s644	False	0
620.001	2.12	622.121	3.580047469276192	draw_card	2.12	columbia_card_task_fmri	8.0	0.9375	89.0	-90.0	0.0625	16.0	1.0	1.0	-10.23579418797242	2.12	n/a	stim	poldrack-single-stim	s644	False	1
622.126	1.735	623.861	3.171714135942859	draw_card	1.735	columbia_card_task_fmri	8.0	0.9333333333333332	89.0	-90.0	0.0666666666666666	16.0	2.0	1.0	-9.514128949745992	1.735	n/a	stim	poldrack-single-stim	s644	False	1
623.865	0.409	624.274	2.705047469276193	draw_card	0.409	columbia_card_task_fmri	8.0	0.9285714285714286	89.0	-90.0	0.0714285714285714	16.0	3.0	1.0	-8.722627528212755	0.409	n/a	stim	poldrack-single-stim	s644	False	1
624.28	0.681	624.961	2.166585930814654	draw_card	0.681	columbia_card_task_fmri	8.0	0.9230769230769232	89.0	-90.0	0.0769230769230769	16.0	4.0	1.0	-7.849413385943656	0.681	n/a	stim	poldrack-single-stim	s644	False	1
624.966	0.442	625.408	1.5383808026095251	draw_card	0.442	columbia_card_task_fmri	8.0	0.9166666666666666	89.0	-90.0	0.0833333333333333	16.0	5.0	1.0	-6.87963198635515	0.442	n/a	stim	poldrack-single-stim	s644	False	1
625.413	0.345	625.758	0.7959565601852829	draw_card	0.345	columbia_card_task_fmri	8.0	0.9090909090909092	89.0	-90.0	0.0909090909090909	16.0	6.0	1.0	-5.794447135807847	0.345	n/a	stim	poldrack-single-stim	s644	False	1
625.763	0.424	626.187	-0.0949525307238077	draw_card	0.424	columbia_card_task_fmri	8.0	0.9	89.0	-90.0	0.1	16.0	7.0	1.0	-4.569613912414823	0.424	n/a	stim	poldrack-single-stim	s644	False	1
626.192	0.361	626.553	-1.1838414196126972	draw_card	0.361	columbia_card_task_fmri	8.0	0.8888888888888888	89.0	-90.0	0.1111111111111111	16.0	8.0	1.0	-3.173424779127185	0.361	n/a	stim	poldrack-single-stim	s644	False	1
626.558	0.424	626.982	-2.544952530723808	draw_card	0.424	columbia_card_task_fmri	8.0	0.875	89.0	-90.0	0.125	16.0	9.0	1.0	-1.5637422658256313	0.424	n/a	stim	poldrack-single-stim	s644	False	1
626.986	0.463	627.449	-4.294952530723807	draw_card	0.463	columbia_card_task_fmri	8.0	0.8571428571428572	89.0	-90.0	0.1428571428571428	16.0	10.0	1.0	0.3162035175277609	0.463	10.0	stim	poldrack-single-stim	s644	False	0
628.205	1.5	627.454	n/a	-1.0	2.726	columbia_card_task_fmri	n/a	n/a	-1.0	n/a	n/a	n/a	n/a	n/a	n/a	n/a	n/a	ITI	poldrack-single-stim	s644	False	0
630.186	2.525	632.711	5.142547469276192	draw_card	2.525	columbia_card_task_fmri	10.0	0.9375	89.0	-95.0	0.0625	16.0	1.0	1.0	-8.545434311398367	2.525	n/a	stim	poldrack-single-stim	s644	False	1
632.716	1.146	633.862	4.705047469276193	draw_card	1.146	columbia_card_task_fmri	10.0	0.9333333333333332	89.0	-95.0	0.0666666666666666	16.0	2.0	1.0	-7.771972874556944	1.146	n/a	stim	poldrack-single-stim	s644	False	1
633.866	0.37	634.236	4.205047469276193	draw_card	0.37	columbia_card_task_fmri	10.0	0.9285714285714286	89.0	-95.0	0.0714285714285714	16.0	3.0	1.0	-6.923679212889521	0.37	n/a	stim	poldrack-single-stim	s644	False	1
634.245	0.372	634.617	3.628124392353116	draw_card	0.372	columbia_card_task_fmri	10.0	0.9230769230769232	89.0	-95.0	0.0769230769230769	16.0	4.0	1.0	-5.987827738384134	0.372	4.0	stim	poldrack-single-stim	s644	False	0
635.376	1.5	634.625	n/a	-1.0	2.386	columbia_card_task_fmri	n/a	n/a	-1.0	n/a	n/a	n/a	n/a	n/a	n/a	n/a	n/a	ITI	poldrack-single-stim	s644	False	0
637.019	0.579	637.598	6.080047469276192	draw_card	0.579	columbia_card_task_fmri	15.0	0.875	89.0	-70.0	0.125	16.0	1.0	2.0	-5.8562452893138826	0.579	n/a	stim	poldrack-single-stim	s644	False	1
637.603	1.541	639.144	5.371714135942858	draw_card	1.541	columbia_card_task_fmri	15.0	0.8666666666666667	89.0	-70.0	0.1333333333333333	16.0	2.0	2.0	-5.07430714756315	1.541	n/a	stim	poldrack-single-stim	s644	False	1
639.149	0.472	639.621	4.562190326419049	draw_card	0.472	columbia_card_task_fmri	15.0	0.8571428571428572	89.0	-70.0	0.1428571428571428	16.0	3.0	2.0	-4.226379963701657	0.472	n/a	stim	poldrack-single-stim	s644	False	1
639.626	0.423	640.049	3.6281243923531137	end_round	0.423	columbia_card_task_fmri	15.0	0.8461538461538461	71.0	-70.0	0.1538461538461538	16.0	4.0	2.0	-3.30355032159634	0.423	3.0	stim	poldrack-single-stim	s644	False	1
640.809	1.5	640.058	n/a	-1.0	2.318	columbia_card_task_fmri	n/a	n/a	-1.0	n/a	n/a	n/a	n/a	n/a	n/a	n/a	n/a	ITI	poldrack-single-stim	s644	False	0
642.382	2.871	645.253	5.080047469276192	draw_card	2.871	columbia_card_task_fmri	16.0	0.875	89.0	-85.0	0.125	16.0	1.0	2.0	-0.572915010422058	2.871	n/a	stim	poldrack-single-stim	s644	False	1
645.26	0.431	645.691	4.238380802609525	draw_card	0.431	columbia_card_task_fmri	16.0	0.8666666666666667	89.0	-85.0	0.1333333333333333	16.0	2.0	2.0	0.3566952169573554	0.431	n/a	stim	poldrack-single-stim	s644	False	1
645.696	0.35	646.046	3.276476040704765	draw_card	0.35	columbia_card_task_fmri	16.0	0.8571428571428572	89.0	-85.0	0.1428571428571428	16.0	3.0	2.0	1.3647280580693248	0.35	n/a	stim	poldrack-single-stim	s644	False	1
646.053	0.531	646.584	2.166585930814652	end_round	0.531	columbia_card_task_fmri	16.0	0.8461538461538461	71.0	-85.0	0.1538461538461538	16.0	4.0	2.0	2.461775311945445	0.531	3.0	stim	poldrack-single-stim	s644	False	1
647.346	1.5	646.595	n/a	-1.0	2.25	columbia_card_task_fmri	n/a	n/a	-1.0	n/a	n/a	n/a	n/a	n/a	n/a	n/a	n/a	ITI	poldrack-single-stim	s644	False	0
