onset	duration	movement_onset	block_duration	condition	correct	correct_response	experiment_exp_id	key_press	response_time	trial_id	trial_type	worker_id	junk
3.021	0.5	3.02	0.5	AY	n/a	n/a	dot_pattern_expectancy	-1.0	n/a	cue	AY	s644	False
5.533	0.5	5.965	1.636	AY	0.0	71.0	dot_pattern_expectancy	89.0	0.432	probe	AY	s644	False
7.174	0.5	7.173	0.5	AX	n/a	n/a	dot_pattern_expectancy	-1.0	n/a	cue	AX	s644	False
9.686	0.5	10.183	1.636	AX	1.0	89.0	dot_pattern_expectancy	89.0	0.497	probe	AX	s644	False
11.327	0.5	11.326	0.5	AX	n/a	n/a	dot_pattern_expectancy	-1.0	n/a	cue	AX	s644	False
13.839	0.5	14.622	1.5	AX	1.0	89.0	dot_pattern_expectancy	89.0	0.783	probe	AX	s644	False
15.344	0.5	15.343	0.5	AX	n/a	n/a	dot_pattern_expectancy	-1.0	n/a	cue	AX	s644	False
17.855	0.5	18.331	1.5	AX	1.0	89.0	dot_pattern_expectancy	89.0	0.476	probe	AX	s644	False
19.36	0.5	19.359	0.5	AX	n/a	n/a	dot_pattern_expectancy	-1.0	n/a	cue	AX	s644	False
21.87	0.5	22.324	1.908	AX	1.0	89.0	dot_pattern_expectancy	89.0	0.454	probe	AX	s644	False
23.783	0.5	23.782	0.5	BX	n/a	n/a	dot_pattern_expectancy	-1.0	n/a	cue	BX	s644	False
26.292	0.5	26.525	1.636	BX	1.0	71.0	dot_pattern_expectancy	71.0	0.233	probe	BX	s644	False
27.933	0.5	27.932	0.5	AX	n/a	n/a	dot_pattern_expectancy	-1.0	n/a	cue	AX	s644	False
30.446	0.5	30.898	2.044	AX	1.0	89.0	dot_pattern_expectancy	89.0	0.452	probe	AX	s644	False
32.495	0.5	32.494	0.5	AX	n/a	n/a	dot_pattern_expectancy	-1.0	n/a	cue	AX	s644	False
35.006	0.5	35.487	1.772	AX	1.0	89.0	dot_pattern_expectancy	89.0	0.481	probe	AX	s644	False
36.785	0.5	36.784	0.5	AX	n/a	n/a	dot_pattern_expectancy	-1.0	n/a	cue	AX	s644	False
39.296	0.5	39.748	1.5	AX	1.0	89.0	dot_pattern_expectancy	89.0	0.452	probe	AX	s644	False
40.801	0.5	40.8	0.5	AX	n/a	n/a	dot_pattern_expectancy	-1.0	n/a	cue	AX	s644	False
43.312	0.5	43.739	2.18	AX	1.0	89.0	dot_pattern_expectancy	89.0	0.427	probe	AX	s644	False
45.497	0.5	45.496	0.5	AX	n/a	n/a	dot_pattern_expectancy	-1.0	n/a	cue	AX	s644	False
48.009	0.5	48.447	1.5	AX	1.0	89.0	dot_pattern_expectancy	89.0	0.438	probe	AX	s644	False
49.514	0.5	49.513	0.5	BX	n/a	n/a	dot_pattern_expectancy	-1.0	n/a	cue	BX	s644	False
52.024	0.5	53.08	3.676	BX	1.0	71.0	dot_pattern_expectancy	71.0	1.056	probe	BX	s644	False
55.707	0.5	55.706	0.5	BY	n/a	n/a	dot_pattern_expectancy	-1.0	n/a	cue	BY	s644	False
58.216	0.5	59.243	1.636	BY	1.0	71.0	dot_pattern_expectancy	71.0	1.027	probe	BY	s644	False
59.857	0.5	59.856	0.5	BY	n/a	n/a	dot_pattern_expectancy	-1.0	n/a	cue	BY	s644	False
62.368	0.5	62.606	1.636	BY	1.0	71.0	dot_pattern_expectancy	71.0	0.238	probe	BY	s644	False
64.01	0.5	64.009	0.5	BX	n/a	n/a	dot_pattern_expectancy	-1.0	n/a	cue	BX	s644	False
66.519	0.5	66.518	1.5	BX	0.0	71.0	dot_pattern_expectancy	-1.0	n/a	probe	BX	s644	False
68.024	0.5	68.023	0.5	AX	n/a	n/a	dot_pattern_expectancy	-1.0	n/a	cue	AX	s644	False
70.533	0.5	70.942	1.908	AX	1.0	89.0	dot_pattern_expectancy	89.0	0.409	probe	AX	s644	False
72.447	0.5	72.446	0.5	AX	n/a	n/a	dot_pattern_expectancy	-1.0	n/a	cue	AX	s644	False
74.958	0.5	75.403	1.636	AX	1.0	89.0	dot_pattern_expectancy	89.0	0.445	probe	AX	s644	False
76.599	0.5	76.598	0.5	BX	n/a	n/a	dot_pattern_expectancy	-1.0	n/a	cue	BX	s644	False
79.11	0.5	79.349	1.5	BX	1.0	71.0	dot_pattern_expectancy	71.0	0.239	probe	BX	s644	False
80.617	0.5	80.616	0.5	AX	n/a	n/a	dot_pattern_expectancy	-1.0	n/a	cue	AX	s644	False
83.125	0.5	83.532	1.908	AX	1.0	89.0	dot_pattern_expectancy	89.0	0.407	probe	AX	s644	False
85.039	0.5	85.038	0.5	BY	n/a	n/a	dot_pattern_expectancy	-1.0	n/a	cue	BY	s644	False
87.551	0.5	87.844	2.18	BY	1.0	71.0	dot_pattern_expectancy	71.0	0.293	probe	BY	s644	False
89.737	0.5	89.736	0.5	AX	n/a	n/a	dot_pattern_expectancy	-1.0	n/a	cue	AX	s644	False
92.248	0.5	92.81	1.772	AX	1.0	89.0	dot_pattern_expectancy	89.0	0.562	probe	AX	s644	False
94.022	0.5	94.021	0.5	AX	n/a	n/a	dot_pattern_expectancy	-1.0	n/a	cue	AX	s644	False
96.532	0.5	97.038	1.5	AX	1.0	89.0	dot_pattern_expectancy	89.0	0.506	probe	AX	s644	False
98.038	0.5	98.037	0.5	AX	n/a	n/a	dot_pattern_expectancy	-1.0	n/a	cue	AX	s644	False
100.549	0.5	101.058	1.5	AX	1.0	89.0	dot_pattern_expectancy	89.0	0.509	probe	AX	s644	False
102.054	0.5	102.053	0.5	AX	n/a	n/a	dot_pattern_expectancy	-1.0	n/a	cue	AX	s644	False
104.566	0.5	105.046	2.044	AX	1.0	89.0	dot_pattern_expectancy	89.0	0.48	probe	AX	s644	False
106.616	0.5	106.615	0.5	AX	n/a	n/a	dot_pattern_expectancy	-1.0	n/a	cue	AX	s644	False
109.128	0.5	109.608	2.86	AX	1.0	89.0	dot_pattern_expectancy	89.0	0.48	probe	AX	s644	False
111.995	0.5	111.994	0.5	BX	n/a	n/a	dot_pattern_expectancy	-1.0	n/a	cue	BX	s644	False
114.505	0.5	114.712	1.5	BX	1.0	71.0	dot_pattern_expectancy	71.0	0.207	probe	BX	s644	False
116.01	0.5	116.009	0.5	BY	n/a	n/a	dot_pattern_expectancy	-1.0	n/a	cue	BY	s644	False
118.52	0.5	118.769	1.772	BY	1.0	71.0	dot_pattern_expectancy	71.0	0.249	probe	BY	s644	False
120.297	0.5	120.296	0.5	AX	n/a	n/a	dot_pattern_expectancy	-1.0	n/a	cue	AX	s644	False
122.808	0.5	123.301	1.772	AX	1.0	89.0	dot_pattern_expectancy	89.0	0.493	probe	AX	s644	False
124.586	0.5	124.585	0.5	AX	n/a	n/a	dot_pattern_expectancy	-1.0	n/a	cue	AX	s644	False
127.096	0.5	127.83	2.86	AX	1.0	89.0	dot_pattern_expectancy	89.0	0.734	probe	AX	s644	False
129.961	0.5	129.96	0.5	AX	n/a	n/a	dot_pattern_expectancy	-1.0	n/a	cue	AX	s644	False
132.472	0.5	132.925	1.772	AX	1.0	89.0	dot_pattern_expectancy	89.0	0.453	probe	AX	s644	False
134.25	0.5	134.249	0.5	BX	n/a	n/a	dot_pattern_expectancy	-1.0	n/a	cue	BX	s644	False
136.762	0.5	136.761	1.636	BX	0.0	71.0	dot_pattern_expectancy	-1.0	n/a	probe	BX	s644	False
138.405	0.5	138.404	0.5	BX	n/a	n/a	dot_pattern_expectancy	-1.0	n/a	cue	BX	s644	False
140.915	0.5	141.143	2.452	BX	1.0	71.0	dot_pattern_expectancy	71.0	0.228	probe	BX	s644	False
143.373	0.5	143.372	0.5	AX	n/a	n/a	dot_pattern_expectancy	-1.0	n/a	cue	AX	s644	False
145.882	0.5	146.321	1.636	AX	1.0	89.0	dot_pattern_expectancy	89.0	0.439	probe	AX	s644	False
147.525	0.5	147.524	0.5	BX	n/a	n/a	dot_pattern_expectancy	-1.0	n/a	cue	BX	s644	False
150.036	0.5	150.259	1.5	BX	1.0	71.0	dot_pattern_expectancy	71.0	0.223	probe	BX	s644	False
151.541	0.5	151.54	0.5	AX	n/a	n/a	dot_pattern_expectancy	-1.0	n/a	cue	AX	s644	False
154.05	0.5	154.53	1.636	AX	1.0	89.0	dot_pattern_expectancy	89.0	0.48	probe	AX	s644	False
155.692	0.5	155.691	0.5	AX	n/a	n/a	dot_pattern_expectancy	-1.0	n/a	cue	AX	s644	False
158.2	0.5	158.622	1.636	AX	1.0	89.0	dot_pattern_expectancy	89.0	0.422	probe	AX	s644	False
159.842	0.5	159.841	0.5	BY	n/a	n/a	dot_pattern_expectancy	-1.0	n/a	cue	BY	s644	False
162.352	0.5	162.579	2.18	BY	1.0	71.0	dot_pattern_expectancy	71.0	0.227	probe	BY	s644	False
164.537	0.5	164.536	0.5	AX	n/a	n/a	dot_pattern_expectancy	-1.0	n/a	cue	AX	s644	False
167.049	0.5	167.481	1.5	AX	1.0	89.0	dot_pattern_expectancy	89.0	0.432	probe	AX	s644	False
168.554	0.5	168.553	0.5	AY	n/a	n/a	dot_pattern_expectancy	-1.0	n/a	cue	AY	s644	False
171.065	0.5	171.79	1.636	AY	0.0	71.0	dot_pattern_expectancy	89.0	0.725	probe	AY	s644	False
172.707	0.5	172.706	0.5	AX	n/a	n/a	dot_pattern_expectancy	-1.0	n/a	cue	AX	s644	False
175.219	0.5	175.621	1.636	AX	1.0	89.0	dot_pattern_expectancy	89.0	0.402	probe	AX	s644	False
187.38	0.5	187.379	0.5	AX	n/a	n/a	dot_pattern_expectancy	-1.0	n/a	cue	AX	s644	False
189.892	0.5	190.514	2.18	AX	1.0	89.0	dot_pattern_expectancy	89.0	0.622	probe	AX	s644	False
192.078	0.5	192.077	0.5	AY	n/a	n/a	dot_pattern_expectancy	-1.0	n/a	cue	AY	s644	False
194.591	0.5	195.225	2.316	AY	1.0	71.0	dot_pattern_expectancy	71.0	0.634	probe	AY	s644	False
196.914	0.5	196.913	0.5	AY	n/a	n/a	dot_pattern_expectancy	-1.0	n/a	cue	AY	s644	False
199.425	0.5	200.105	1.636	AY	1.0	71.0	dot_pattern_expectancy	71.0	0.68	probe	AY	s644	False
201.066	0.5	201.065	0.5	BX	n/a	n/a	dot_pattern_expectancy	-1.0	n/a	cue	BX	s644	False
203.578	0.5	203.871	1.908	BX	1.0	71.0	dot_pattern_expectancy	71.0	0.293	probe	BX	s644	False
205.492	0.5	205.491	0.5	AX	n/a	n/a	dot_pattern_expectancy	-1.0	n/a	cue	AX	s644	False
208.004	0.5	208.432	3.54	AX	1.0	89.0	dot_pattern_expectancy	89.0	0.428	probe	AX	s644	False
211.549	0.5	211.548	0.5	BX	n/a	n/a	dot_pattern_expectancy	-1.0	n/a	cue	BX	s644	False
214.059	0.5	214.315	1.636	BX	1.0	71.0	dot_pattern_expectancy	71.0	0.256	probe	BX	s644	False
215.702	0.5	215.701	0.5	BY	n/a	n/a	dot_pattern_expectancy	-1.0	n/a	cue	BY	s644	False
218.213	0.5	218.44	1.5	BY	1.0	71.0	dot_pattern_expectancy	71.0	0.227	probe	BY	s644	False
219.719	0.5	219.718	0.5	AX	n/a	n/a	dot_pattern_expectancy	-1.0	n/a	cue	AX	s644	False
222.225	0.5	222.686	1.5	AX	1.0	89.0	dot_pattern_expectancy	89.0	0.461	probe	AX	s644	False
223.729	0.5	223.728	0.5	AX	n/a	n/a	dot_pattern_expectancy	-1.0	n/a	cue	AX	s644	False
226.24	0.5	226.723	1.772	AX	1.0	89.0	dot_pattern_expectancy	89.0	0.483	probe	AX	s644	False
228.016	0.5	228.015	0.5	BY	n/a	n/a	dot_pattern_expectancy	-1.0	n/a	cue	BY	s644	False
230.527	0.5	230.917	2.452	BY	1.0	71.0	dot_pattern_expectancy	71.0	0.39	probe	BY	s644	False
232.985	0.5	232.984	0.5	AX	n/a	n/a	dot_pattern_expectancy	-1.0	n/a	cue	AX	s644	False
235.495	0.5	235.988	1.908	AX	1.0	89.0	dot_pattern_expectancy	89.0	0.493	probe	AX	s644	False
237.409	0.5	237.408	0.5	BX	n/a	n/a	dot_pattern_expectancy	-1.0	n/a	cue	BX	s644	False
239.919	0.5	240.242	1.636	BX	1.0	71.0	dot_pattern_expectancy	71.0	0.323	probe	BX	s644	False
241.56	0.5	241.559	0.5	AX	n/a	n/a	dot_pattern_expectancy	-1.0	n/a	cue	AX	s644	False
244.072	0.5	244.492	1.5	AX	1.0	89.0	dot_pattern_expectancy	89.0	0.42	probe	AX	s644	False
245.576	0.5	245.575	0.5	AX	n/a	n/a	dot_pattern_expectancy	-1.0	n/a	cue	AX	s644	False
248.088	0.5	248.575	1.636	AX	1.0	89.0	dot_pattern_expectancy	89.0	0.487	probe	AX	s644	False
249.73	0.5	249.729	0.5	AX	n/a	n/a	dot_pattern_expectancy	-1.0	n/a	cue	AX	s644	False
252.241	0.5	252.708	1.636	AX	1.0	89.0	dot_pattern_expectancy	89.0	0.467	probe	AX	s644	False
253.883	0.5	253.882	0.5	BY	n/a	n/a	dot_pattern_expectancy	-1.0	n/a	cue	BY	s644	False
256.391	0.5	256.971	2.452	BY	1.0	71.0	dot_pattern_expectancy	71.0	0.58	probe	BY	s644	False
258.848	0.5	258.847	0.5	AX	n/a	n/a	dot_pattern_expectancy	-1.0	n/a	cue	AX	s644	False
261.359	0.5	261.965	1.5	AX	1.0	89.0	dot_pattern_expectancy	89.0	0.606	probe	AX	s644	False
262.866	0.5	262.865	0.5	BY	n/a	n/a	dot_pattern_expectancy	-1.0	n/a	cue	BY	s644	False
265.376	0.5	265.708	1.5	BY	1.0	71.0	dot_pattern_expectancy	71.0	0.332	probe	BY	s644	False
266.881	0.5	266.88	0.5	AX	n/a	n/a	dot_pattern_expectancy	-1.0	n/a	cue	AX	s644	False
269.393	0.5	269.821	1.636	AX	1.0	89.0	dot_pattern_expectancy	89.0	0.428	probe	AX	s644	False
271.034	0.5	271.033	0.5	AX	n/a	n/a	dot_pattern_expectancy	-1.0	n/a	cue	AX	s644	False
273.546	0.5	273.94	1.636	AX	1.0	89.0	dot_pattern_expectancy	89.0	0.394	probe	AX	s644	False
275.187	0.5	275.186	0.5	AY	n/a	n/a	dot_pattern_expectancy	-1.0	n/a	cue	AY	s644	False
277.699	0.5	278.124	1.636	AY	0.0	71.0	dot_pattern_expectancy	89.0	0.425	probe	AY	s644	False
279.34	0.5	279.339	0.5	AX	n/a	n/a	dot_pattern_expectancy	-1.0	n/a	cue	AX	s644	False
281.852	0.5	282.314	1.5	AX	1.0	89.0	dot_pattern_expectancy	89.0	0.462	probe	AX	s644	False
283.357	0.5	283.356	0.5	AX	n/a	n/a	dot_pattern_expectancy	-1.0	n/a	cue	AX	s644	False
285.868	0.5	286.549	1.5	AX	1.0	89.0	dot_pattern_expectancy	89.0	0.681	probe	AX	s644	False
287.373	0.5	287.372	0.5	AX	n/a	n/a	dot_pattern_expectancy	-1.0	n/a	cue	AX	s644	False
289.883	0.5	290.515	1.772	AX	1.0	89.0	dot_pattern_expectancy	89.0	0.632	probe	AX	s644	False
291.661	0.5	291.66	0.5	AX	n/a	n/a	dot_pattern_expectancy	-1.0	n/a	cue	AX	s644	False
294.173	0.5	294.727	2.18	AX	1.0	89.0	dot_pattern_expectancy	89.0	0.554	probe	AX	s644	False
296.359	0.5	296.358	0.5	BX	n/a	n/a	dot_pattern_expectancy	-1.0	n/a	cue	BX	s644	False
298.869	0.5	299.105	1.772	BX	1.0	71.0	dot_pattern_expectancy	71.0	0.236	probe	BX	s644	False
300.648	0.5	300.647	0.5	BY	n/a	n/a	dot_pattern_expectancy	-1.0	n/a	cue	BY	s644	False
303.156	0.5	303.432	1.5	BY	1.0	71.0	dot_pattern_expectancy	71.0	0.276	probe	BY	s644	False
304.663	0.5	304.662	0.5	AX	n/a	n/a	dot_pattern_expectancy	-1.0	n/a	cue	AX	s644	False
307.173	0.5	307.871	1.5	AX	1.0	89.0	dot_pattern_expectancy	89.0	0.698	probe	AX	s644	False
308.678	0.5	308.677	0.5	AX	n/a	n/a	dot_pattern_expectancy	-1.0	n/a	cue	AX	s644	False
311.187	0.5	311.897	1.636	AX	1.0	89.0	dot_pattern_expectancy	89.0	0.71	probe	AX	s644	False
312.83	0.5	312.829	0.5	AY	n/a	n/a	dot_pattern_expectancy	-1.0	n/a	cue	AY	s644	False
315.342	0.5	316.0	2.18	AY	1.0	71.0	dot_pattern_expectancy	71.0	0.658	probe	AY	s644	False
317.527	0.5	317.526	0.5	AY	n/a	n/a	dot_pattern_expectancy	-1.0	n/a	cue	AY	s644	False
320.035	0.5	320.765	2.316	AY	1.0	71.0	dot_pattern_expectancy	71.0	0.73	probe	AY	s644	False
322.356	0.5	322.355	0.5	BX	n/a	n/a	dot_pattern_expectancy	-1.0	n/a	cue	BX	s644	False
324.867	0.5	325.289	1.636	BX	1.0	71.0	dot_pattern_expectancy	71.0	0.422	probe	BX	s644	False
326.51	0.5	326.509	0.5	BX	n/a	n/a	dot_pattern_expectancy	-1.0	n/a	cue	BX	s644	False
329.016	0.5	329.401	2.18	BX	1.0	71.0	dot_pattern_expectancy	71.0	0.385	probe	BX	s644	False
331.202	0.5	331.201	0.5	AY	n/a	n/a	dot_pattern_expectancy	-1.0	n/a	cue	AY	s644	False
333.713	0.5	334.522	2.044	AY	1.0	71.0	dot_pattern_expectancy	71.0	0.809	probe	AY	s644	False
335.764	0.5	335.763	0.5	AX	n/a	n/a	dot_pattern_expectancy	-1.0	n/a	cue	AX	s644	False
338.274	0.5	339.101	1.772	AX	1.0	89.0	dot_pattern_expectancy	89.0	0.827	probe	AX	s644	False
340.052	0.5	340.051	0.5	AX	n/a	n/a	dot_pattern_expectancy	-1.0	n/a	cue	AX	s644	False
342.561	0.5	343.33	1.5	AX	1.0	89.0	dot_pattern_expectancy	89.0	0.769	probe	AX	s644	False
344.067	0.5	344.066	0.5	AX	n/a	n/a	dot_pattern_expectancy	-1.0	n/a	cue	AX	s644	False
346.577	0.5	347.124	2.18	AX	1.0	89.0	dot_pattern_expectancy	89.0	0.547	probe	AX	s644	False
348.764	0.5	348.763	0.5	AY	n/a	n/a	dot_pattern_expectancy	-1.0	n/a	cue	AY	s644	False
351.273	0.5	351.961	2.452	AY	1.0	71.0	dot_pattern_expectancy	71.0	0.688	probe	AY	s644	False
353.731	0.5	353.73	0.5	AX	n/a	n/a	dot_pattern_expectancy	-1.0	n/a	cue	AX	s644	False
356.243	0.5	356.945	1.636	AX	1.0	89.0	dot_pattern_expectancy	89.0	0.702	probe	AX	s644	False
357.883	0.5	357.882	0.5	AX	n/a	n/a	dot_pattern_expectancy	-1.0	n/a	cue	AX	s644	False
360.394	0.5	360.968	1.908	AX	1.0	89.0	dot_pattern_expectancy	89.0	0.574	probe	AX	s644	False
372.824	0.5	372.823	0.5	AX	n/a	n/a	dot_pattern_expectancy	-1.0	n/a	cue	AX	s644	False
375.335	0.5	375.883	1.772	AX	1.0	89.0	dot_pattern_expectancy	89.0	0.548	probe	AX	s644	False
377.114	0.5	377.113	0.5	AX	n/a	n/a	dot_pattern_expectancy	-1.0	n/a	cue	AX	s644	False
379.625	0.5	380.187	1.5	AX	1.0	89.0	dot_pattern_expectancy	89.0	0.562	probe	AX	s644	False
381.13	0.5	381.129	0.5	AY	n/a	n/a	dot_pattern_expectancy	-1.0	n/a	cue	AY	s644	False
383.641	0.5	384.416	2.452	AY	1.0	71.0	dot_pattern_expectancy	71.0	0.775	probe	AY	s644	False
386.099	0.5	386.098	0.5	AY	n/a	n/a	dot_pattern_expectancy	-1.0	n/a	cue	AY	s644	False
388.609	0.5	389.374	1.772	AY	1.0	71.0	dot_pattern_expectancy	71.0	0.765	probe	AY	s644	False
390.387	0.5	390.386	0.5	AX	n/a	n/a	dot_pattern_expectancy	-1.0	n/a	cue	AX	s644	False
392.898	0.5	393.548	1.908	AX	1.0	89.0	dot_pattern_expectancy	89.0	0.65	probe	AX	s644	False
394.811	0.5	394.81	0.5	AX	n/a	n/a	dot_pattern_expectancy	-1.0	n/a	cue	AX	s644	False
397.32	0.5	397.874	1.908	AX	1.0	89.0	dot_pattern_expectancy	89.0	0.554	probe	AX	s644	False
399.234	0.5	399.233	0.5	AX	n/a	n/a	dot_pattern_expectancy	-1.0	n/a	cue	AX	s644	False
401.745	0.5	402.197	2.588	AX	1.0	89.0	dot_pattern_expectancy	89.0	0.452	probe	AX	s644	False
404.339	0.5	404.338	0.5	AY	n/a	n/a	dot_pattern_expectancy	-1.0	n/a	cue	AY	s644	False
406.85	0.5	407.443	1.5	AY	0.0	71.0	dot_pattern_expectancy	89.0	0.593	probe	AY	s644	False
408.355	0.5	408.354	0.5	BY	n/a	n/a	dot_pattern_expectancy	-1.0	n/a	cue	BY	s644	False
410.866	0.5	411.284	1.5	BY	1.0	71.0	dot_pattern_expectancy	71.0	0.418	probe	BY	s644	False
412.373	0.5	412.372	0.5	BY	n/a	n/a	dot_pattern_expectancy	-1.0	n/a	cue	BY	s644	False
414.883	0.5	415.332	1.5	BY	1.0	71.0	dot_pattern_expectancy	71.0	0.449	probe	BY	s644	False
416.389	0.5	416.388	0.5	AX	n/a	n/a	dot_pattern_expectancy	-1.0	n/a	cue	AX	s644	False
418.897	0.5	419.751	1.636	AX	1.0	89.0	dot_pattern_expectancy	89.0	0.854	probe	AX	s644	False
420.539	0.5	420.538	0.5	BX	n/a	n/a	dot_pattern_expectancy	-1.0	n/a	cue	BX	s644	False
423.048	0.5	423.383	2.044	BX	1.0	71.0	dot_pattern_expectancy	71.0	0.335	probe	BX	s644	False
425.098	0.5	425.097	0.5	AX	n/a	n/a	dot_pattern_expectancy	-1.0	n/a	cue	AX	s644	False
427.61	0.5	428.121	1.772	AX	1.0	89.0	dot_pattern_expectancy	89.0	0.511	probe	AX	s644	False
429.387	0.5	429.386	0.5	BX	n/a	n/a	dot_pattern_expectancy	-1.0	n/a	cue	BX	s644	False
431.898	0.5	432.123	2.588	BX	1.0	71.0	dot_pattern_expectancy	71.0	0.225	probe	BX	s644	False
434.492	0.5	434.491	0.5	AY	n/a	n/a	dot_pattern_expectancy	-1.0	n/a	cue	AY	s644	False
437.003	0.5	437.401	1.5	AY	0.0	71.0	dot_pattern_expectancy	89.0	0.398	probe	AY	s644	False
438.508	0.5	438.507	0.5	AX	n/a	n/a	dot_pattern_expectancy	-1.0	n/a	cue	AX	s644	False
441.019	0.5	441.477	2.452	AX	1.0	89.0	dot_pattern_expectancy	89.0	0.458	probe	AX	s644	False
443.477	0.5	443.476	0.5	BY	n/a	n/a	dot_pattern_expectancy	-1.0	n/a	cue	BY	s644	False
445.989	0.5	446.316	1.636	BY	1.0	71.0	dot_pattern_expectancy	71.0	0.327	probe	BY	s644	False
447.626	0.5	447.625	0.5	AX	n/a	n/a	dot_pattern_expectancy	-1.0	n/a	cue	AX	s644	False
450.139	0.5	450.658	1.636	AX	1.0	89.0	dot_pattern_expectancy	89.0	0.519	probe	AX	s644	False
451.78	0.5	451.779	0.5	AX	n/a	n/a	dot_pattern_expectancy	-1.0	n/a	cue	AX	s644	False
454.291	0.5	455.001	1.5	AX	1.0	89.0	dot_pattern_expectancy	89.0	0.71	probe	AX	s644	False
455.793	0.5	455.792	0.5	BY	n/a	n/a	dot_pattern_expectancy	-1.0	n/a	cue	BY	s644	False
458.305	0.5	458.609	1.636	BY	1.0	71.0	dot_pattern_expectancy	71.0	0.304	probe	BY	s644	False
459.946	0.5	459.945	0.5	AX	n/a	n/a	dot_pattern_expectancy	-1.0	n/a	cue	AX	s644	False
462.458	0.5	462.918	1.5	AX	1.0	89.0	dot_pattern_expectancy	89.0	0.46	probe	AX	s644	False
463.962	0.5	463.961	0.5	AY	n/a	n/a	dot_pattern_expectancy	-1.0	n/a	cue	AY	s644	False
466.471	0.5	467.126	2.18	AY	1.0	71.0	dot_pattern_expectancy	71.0	0.655	probe	AY	s644	False
468.658	0.5	468.657	0.5	AX	n/a	n/a	dot_pattern_expectancy	-1.0	n/a	cue	AX	s644	False
471.168	0.5	471.597	1.5	AX	1.0	89.0	dot_pattern_expectancy	89.0	0.429	probe	AX	s644	False
472.674	0.5	472.673	0.5	AX	n/a	n/a	dot_pattern_expectancy	-1.0	n/a	cue	AX	s644	False
475.184	0.5	475.738	1.908	AX	1.0	89.0	dot_pattern_expectancy	89.0	0.554	probe	AX	s644	False
477.098	0.5	477.097	0.5	BY	n/a	n/a	dot_pattern_expectancy	-1.0	n/a	cue	BY	s644	False
479.61	0.5	479.87	1.636	BY	1.0	71.0	dot_pattern_expectancy	71.0	0.26	probe	BY	s644	False
481.251	0.5	481.25	0.5	BY	n/a	n/a	dot_pattern_expectancy	-1.0	n/a	cue	BY	s644	False
483.761	0.5	484.24	1.636	BY	1.0	71.0	dot_pattern_expectancy	71.0	0.479	probe	BY	s644	False
485.404	0.5	485.403	0.5	AX	n/a	n/a	dot_pattern_expectancy	-1.0	n/a	cue	AX	s644	False
487.916	0.5	488.359	1.636	AX	1.0	89.0	dot_pattern_expectancy	89.0	0.443	probe	AX	s644	False
489.557	0.5	489.556	0.5	AX	n/a	n/a	dot_pattern_expectancy	-1.0	n/a	cue	AX	s644	False
492.068	0.5	492.704	1.5	AX	1.0	89.0	dot_pattern_expectancy	89.0	0.636	probe	AX	s644	False
493.574	0.5	493.573	0.5	BY	n/a	n/a	dot_pattern_expectancy	-1.0	n/a	cue	BY	s644	False
496.084	0.5	496.818	2.044	BY	1.0	71.0	dot_pattern_expectancy	71.0	0.734	probe	BY	s644	False
498.133	0.5	498.132	0.5	AY	n/a	n/a	dot_pattern_expectancy	-1.0	n/a	cue	AY	s644	False
500.644	0.5	501.275	2.18	AY	1.0	71.0	dot_pattern_expectancy	71.0	0.631	probe	AY	s644	False
502.829	0.5	502.828	0.5	AY	n/a	n/a	dot_pattern_expectancy	-1.0	n/a	cue	AY	s644	False
505.34	0.5	506.018	1.636	AY	1.0	71.0	dot_pattern_expectancy	71.0	0.678	probe	AY	s644	False
506.982	0.5	506.981	0.5	AY	n/a	n/a	dot_pattern_expectancy	-1.0	n/a	cue	AY	s644	False
509.491	0.5	510.238	1.772	AY	1.0	71.0	dot_pattern_expectancy	71.0	0.747	probe	AY	s644	False
511.268	0.5	511.267	0.5	BY	n/a	n/a	dot_pattern_expectancy	-1.0	n/a	cue	BY	s644	False
513.779	0.5	514.207	1.5	BY	1.0	71.0	dot_pattern_expectancy	71.0	0.428	probe	BY	s644	False
515.282	0.5	515.281	0.5	BX	n/a	n/a	dot_pattern_expectancy	-1.0	n/a	cue	BX	s644	False
517.793	0.5	518.117	1.908	BX	1.0	71.0	dot_pattern_expectancy	71.0	0.324	probe	BX	s644	False
519.706	0.5	519.705	0.5	AX	n/a	n/a	dot_pattern_expectancy	-1.0	n/a	cue	AX	s644	False
522.219	0.5	523.324	2.044	AX	1.0	89.0	dot_pattern_expectancy	89.0	1.105	probe	AX	s644	False
524.27	0.5	524.269	0.5	AX	n/a	n/a	dot_pattern_expectancy	-1.0	n/a	cue	AX	s644	False
526.781	0.5	527.217	1.636	AX	1.0	89.0	dot_pattern_expectancy	89.0	0.436	probe	AX	s644	False
528.423	0.5	528.422	0.5	AX	n/a	n/a	dot_pattern_expectancy	-1.0	n/a	cue	AX	s644	False
530.934	0.5	531.38	1.772	AX	1.0	89.0	dot_pattern_expectancy	89.0	0.446	probe	AX	s644	False
532.712	0.5	532.711	0.5	AX	n/a	n/a	dot_pattern_expectancy	-1.0	n/a	cue	AX	s644	False
535.222	0.5	535.767	1.636	AX	1.0	89.0	dot_pattern_expectancy	89.0	0.545	probe	AX	s644	False
536.863	0.5	536.862	0.5	BX	n/a	n/a	dot_pattern_expectancy	-1.0	n/a	cue	BX	s644	False
539.372	0.5	539.667	1.772	BX	1.0	71.0	dot_pattern_expectancy	71.0	0.295	probe	BX	s644	False
541.151	0.5	541.15	0.5	AX	n/a	n/a	dot_pattern_expectancy	-1.0	n/a	cue	AX	s644	False
543.663	0.5	544.147	1.5	AX	1.0	89.0	dot_pattern_expectancy	89.0	0.484	probe	AX	s644	False
555.688	0.5	555.687	0.5	BY	n/a	n/a	dot_pattern_expectancy	-1.0	n/a	cue	BY	s644	False
558.2	0.5	558.502	1.636	BY	1.0	71.0	dot_pattern_expectancy	71.0	0.302	probe	BY	s644	False
559.838	0.5	559.837	0.5	AY	n/a	n/a	dot_pattern_expectancy	-1.0	n/a	cue	AY	s644	False
562.35	0.5	563.019	1.5	AY	1.0	71.0	dot_pattern_expectancy	71.0	0.669	probe	AY	s644	False
563.855	0.5	563.854	0.5	AX	n/a	n/a	dot_pattern_expectancy	-1.0	n/a	cue	AX	s644	False
566.366	0.5	566.874	2.044	AX	1.0	89.0	dot_pattern_expectancy	89.0	0.508	probe	AX	s644	False
568.417	0.5	568.416	0.5	BY	n/a	n/a	dot_pattern_expectancy	-1.0	n/a	cue	BY	s644	False
570.923	0.5	570.922	1.772	BY	0.0	71.0	dot_pattern_expectancy	-1.0	n/a	probe	BY	s644	False
572.701	0.5	572.7	0.5	BX	n/a	n/a	dot_pattern_expectancy	-1.0	n/a	cue	BX	s644	False
575.212	0.5	575.478	1.636	BX	1.0	71.0	dot_pattern_expectancy	71.0	0.266	probe	BX	s644	False
576.851	0.5	576.85	0.5	AX	n/a	n/a	dot_pattern_expectancy	-1.0	n/a	cue	AX	s644	False
579.362	0.5	580.015	1.636	AX	1.0	89.0	dot_pattern_expectancy	89.0	0.653	probe	AX	s644	False
581.003	0.5	581.002	0.5	AX	n/a	n/a	dot_pattern_expectancy	-1.0	n/a	cue	AX	s644	False
583.515	0.5	584.065	1.5	AX	1.0	89.0	dot_pattern_expectancy	89.0	0.55	probe	AX	s644	False
585.017	0.5	585.016	0.5	AX	n/a	n/a	dot_pattern_expectancy	-1.0	n/a	cue	AX	s644	False
587.529	0.5	588.071	1.5	AX	1.0	89.0	dot_pattern_expectancy	89.0	0.542	probe	AX	s644	False
589.034	0.5	589.033	0.5	AY	n/a	n/a	dot_pattern_expectancy	-1.0	n/a	cue	AY	s644	False
591.545	0.5	592.277	2.044	AY	1.0	71.0	dot_pattern_expectancy	71.0	0.732	probe	AY	s644	False
593.596	0.5	593.595	0.5	AX	n/a	n/a	dot_pattern_expectancy	-1.0	n/a	cue	AX	s644	False
596.107	0.5	596.701	2.452	AX	1.0	89.0	dot_pattern_expectancy	89.0	0.594	probe	AX	s644	False
598.564	0.5	598.563	0.5	AX	n/a	n/a	dot_pattern_expectancy	-1.0	n/a	cue	AX	s644	False
601.074	0.5	601.739	1.908	AX	1.0	89.0	dot_pattern_expectancy	89.0	0.665	probe	AX	s644	False
602.989	0.5	602.988	0.5	AX	n/a	n/a	dot_pattern_expectancy	-1.0	n/a	cue	AX	s644	False
605.499	0.5	606.084	1.5	AX	1.0	89.0	dot_pattern_expectancy	89.0	0.585	probe	AX	s644	False
607.004	0.5	607.003	0.5	AX	n/a	n/a	dot_pattern_expectancy	-1.0	n/a	cue	AX	s644	False
609.514	0.5	609.965	1.908	AX	1.0	89.0	dot_pattern_expectancy	89.0	0.451	probe	AX	s644	False
611.427	0.5	611.426	0.5	BX	n/a	n/a	dot_pattern_expectancy	-1.0	n/a	cue	BX	s644	False
613.934	0.5	614.08	2.18	BX	1.0	71.0	dot_pattern_expectancy	71.0	0.146	probe	BX	s644	False
616.121	0.5	616.12	0.5	AX	n/a	n/a	dot_pattern_expectancy	-1.0	n/a	cue	AX	s644	False
618.634	0.5	619.143	1.5	AX	1.0	89.0	dot_pattern_expectancy	89.0	0.509	probe	AX	s644	False
620.139	0.5	620.138	0.5	BY	n/a	n/a	dot_pattern_expectancy	-1.0	n/a	cue	BY	s644	False
622.649	0.5	622.93	1.908	BY	1.0	71.0	dot_pattern_expectancy	71.0	0.281	probe	BY	s644	False
624.562	0.5	624.561	0.5	BX	n/a	n/a	dot_pattern_expectancy	-1.0	n/a	cue	BX	s644	False
627.073	0.5	627.151	2.316	BX	1.0	71.0	dot_pattern_expectancy	71.0	0.078	probe	BX	s644	False
629.395	0.5	629.394	0.5	AY	n/a	n/a	dot_pattern_expectancy	-1.0	n/a	cue	AY	s644	False
631.905	0.5	632.697	2.316	AY	0.0	71.0	dot_pattern_expectancy	89.0	0.792	probe	AY	s644	False
634.227	0.5	634.226	0.5	BX	n/a	n/a	dot_pattern_expectancy	-1.0	n/a	cue	BX	s644	False
636.737	0.5	637.052	1.636	BX	1.0	71.0	dot_pattern_expectancy	71.0	0.315	probe	BX	s644	False
638.379	0.5	638.378	0.5	AY	n/a	n/a	dot_pattern_expectancy	-1.0	n/a	cue	AY	s644	False
640.89	0.5	641.666	1.5	AY	1.0	71.0	dot_pattern_expectancy	71.0	0.776	probe	AY	s644	False
642.395	0.5	642.394	0.5	BY	n/a	n/a	dot_pattern_expectancy	-1.0	n/a	cue	BY	s644	False
644.907	0.5	645.228	1.908	BY	1.0	71.0	dot_pattern_expectancy	71.0	0.321	probe	BY	s644	False
646.821	0.5	646.82	0.5	AX	n/a	n/a	dot_pattern_expectancy	-1.0	n/a	cue	AX	s644	False
649.333	0.5	649.986	1.5	AX	1.0	89.0	dot_pattern_expectancy	89.0	0.653	probe	AX	s644	False
650.838	0.5	650.837	0.5	AY	n/a	n/a	dot_pattern_expectancy	-1.0	n/a	cue	AY	s644	False
653.349	0.5	654.438	2.316	AY	1.0	71.0	dot_pattern_expectancy	71.0	1.089	probe	AY	s644	False
655.671	0.5	655.67	0.5	AX	n/a	n/a	dot_pattern_expectancy	-1.0	n/a	cue	AX	s644	False
658.181	0.5	659.038	1.5	AX	0.0	89.0	dot_pattern_expectancy	71.0	0.857	probe	AX	s644	False
659.686	0.5	659.685	0.5	AY	n/a	n/a	dot_pattern_expectancy	-1.0	n/a	cue	AY	s644	False
662.198	0.5	662.947	2.724	AY	1.0	71.0	dot_pattern_expectancy	71.0	0.749	probe	AY	s644	False
664.929	0.5	664.928	0.5	AX	n/a	n/a	dot_pattern_expectancy	-1.0	n/a	cue	AX	s644	False
667.438	0.5	667.899	1.5	AX	1.0	89.0	dot_pattern_expectancy	89.0	0.461	probe	AX	s644	False
668.944	0.5	668.943	0.5	AX	n/a	n/a	dot_pattern_expectancy	-1.0	n/a	cue	AX	s644	False
671.456	0.5	672.031	1.636	AX	1.0	89.0	dot_pattern_expectancy	89.0	0.575	probe	AX	s644	False
673.097	0.5	673.096	0.5	AX	n/a	n/a	dot_pattern_expectancy	-1.0	n/a	cue	AX	s644	False
675.609	0.5	676.096	1.636	AX	1.0	89.0	dot_pattern_expectancy	89.0	0.487	probe	AX	s644	False
677.25	0.5	677.249	0.5	AX	n/a	n/a	dot_pattern_expectancy	-1.0	n/a	cue	AX	s644	False
679.76	0.5	680.355	1.772	AX	1.0	89.0	dot_pattern_expectancy	89.0	0.595	probe	AX	s644	False
681.537	0.5	681.536	0.5	BY	n/a	n/a	dot_pattern_expectancy	-1.0	n/a	cue	BY	s644	False
684.049	0.5	684.048	1.772	BY	0.0	71.0	dot_pattern_expectancy	-1.0	n/a	probe	BY	s644	False
685.826	0.5	685.825	0.5	AX	n/a	n/a	dot_pattern_expectancy	-1.0	n/a	cue	AX	s644	False
688.337	0.5	689.049	1.5	AX	1.0	89.0	dot_pattern_expectancy	89.0	0.712	probe	AX	s644	False
689.843	0.5	689.842	0.5	BY	n/a	n/a	dot_pattern_expectancy	-1.0	n/a	cue	BY	s644	False
692.354	0.5	692.508	2.452	BY	1.0	71.0	dot_pattern_expectancy	71.0	0.154	probe	BY	s644	False
694.811	0.5	694.81	0.5	AX	n/a	n/a	dot_pattern_expectancy	-1.0	n/a	cue	AX	s644	False
697.323	0.5	698.009	1.636	AX	1.0	89.0	dot_pattern_expectancy	89.0	0.686	probe	AX	s644	False
698.964	0.5	698.963	0.5	AX	n/a	n/a	dot_pattern_expectancy	-1.0	n/a	cue	AX	s644	False
701.476	0.5	702.285	1.636	AX	1.0	89.0	dot_pattern_expectancy	89.0	0.809	probe	AX	s644	False
703.117	0.5	703.116	0.5	BX	n/a	n/a	dot_pattern_expectancy	-1.0	n/a	cue	BX	s644	False
705.628	0.5	705.905	1.5	BX	1.0	71.0	dot_pattern_expectancy	71.0	0.277	probe	BX	s644	False
707.134	0.5	707.133	0.5	BX	n/a	n/a	dot_pattern_expectancy	-1.0	n/a	cue	BX	s644	False
709.645	0.5	709.952	1.5	BX	1.0	71.0	dot_pattern_expectancy	71.0	0.307	probe	BX	s644	False
711.15	0.5	711.149	0.5	AX	n/a	n/a	dot_pattern_expectancy	-1.0	n/a	cue	AX	s644	False
713.662	0.5	714.274	2.316	AX	1.0	89.0	dot_pattern_expectancy	89.0	0.612	probe	AX	s644	False
715.985	0.5	715.984	0.5	AY	n/a	n/a	dot_pattern_expectancy	-1.0	n/a	cue	AY	s644	False
718.497	0.5	719.141	2.044	AY	1.0	71.0	dot_pattern_expectancy	71.0	0.644	probe	AY	s644	False
720.547	0.5	720.546	0.5	AX	n/a	n/a	dot_pattern_expectancy	-1.0	n/a	cue	AX	s644	False
723.059	0.5	723.756	3.948	AX	1.0	89.0	dot_pattern_expectancy	89.0	0.697	probe	AX	s644	False
727.013	0.5	727.012	0.5	AX	n/a	n/a	dot_pattern_expectancy	-1.0	n/a	cue	AX	s644	False
729.525	0.5	730.204	1.636	AX	1.0	89.0	dot_pattern_expectancy	89.0	0.679	probe	AX	s644	False
