onset	duration	movement_onset	CTI	block_duration	correct	correct_response	cue	cue_switch	experiment_exp_id	key_press	response_time	stim_color	stim_number	switch_type	task	task_switch	trial_id	trial_type	worker_id	first_trial_of_block	junk
4.435	1.0	5.894	0.9	2.136	True	71.0	High-Low	switch	twobytwo	71.0	0.559	blue	8.0	cue_switch	magnitude	stay	stim	poldrack-single-stim	s644	1	False
6.682	1.0	7.931	0.1	2.272	True	71.0	Color	n/a	twobytwo	71.0	1.149	blue	7.0	task_switch	color	switch	stim	poldrack-single-stim	s644	0	False
9.867	1.0	11.256	0.9	2.136	True	89.0	High-Low	n/a	twobytwo	89.0	0.489	orange	4.0	task_switch	magnitude	switch	stim	poldrack-single-stim	s644	0	False
12.916	1.0	14.39	0.9	2.272	True	71.0	High-Low	stay	twobytwo	71.0	0.574	orange	7.0	cue_stay	magnitude	stay	stim	poldrack-single-stim	s644	0	False
15.298	1.0	16.605	0.1	2.0	True	71.0	Orange-Blue	n/a	twobytwo	71.0	1.207	blue	3.0	task_switch	color	switch	stim	poldrack-single-stim	s644	0	False
18.209	1.0	20.085	0.9	2.816	True	71.0	Orange-Blue	stay	twobytwo	71.0	0.976	blue	8.0	cue_stay	color	stay	stim	poldrack-single-stim	s644	0	False
21.135	1.0	21.924	0.1	2.408	True	89.0	Color	switch	twobytwo	89.0	0.689	orange	4.0	cue_switch	color	stay	stim	poldrack-single-stim	s644	0	False
23.654	1.0	24.496	0.1	2.0	False	89.0	Color	stay	twobytwo	71.0	0.742	orange	7.0	cue_stay	color	stay	stim	poldrack-single-stim	s644	0	False
26.566	1.0	27.975	0.9	2.544	True	71.0	Color	stay	twobytwo	71.0	0.509	blue	4.0	cue_stay	color	stay	stim	poldrack-single-stim	s644	0	False
30.021	1.0	31.489	0.9	2.136	True	71.0	Magnitude	n/a	twobytwo	71.0	0.568	orange	6.0	task_switch	magnitude	switch	stim	poldrack-single-stim	s644	0	False
32.267	1.0	33.127	0.1	2.0	False	71.0	Color	n/a	twobytwo	89.0	0.76	blue	2.0	task_switch	color	switch	stim	poldrack-single-stim	s644	0	False
35.178	1.0	36.754	0.9	2.0	True	71.0	Color	stay	twobytwo	71.0	0.676	blue	2.0	cue_stay	color	stay	stim	poldrack-single-stim	s644	0	False
37.289	1.0	38.537	0.1	2.136	True	89.0	Orange-Blue	switch	twobytwo	89.0	1.148	orange	4.0	cue_switch	color	stay	stim	poldrack-single-stim	s644	0	False
40.335	1.0	41.695	0.9	2.136	True	89.0	Orange-Blue	stay	twobytwo	89.0	0.46	orange	4.0	cue_stay	color	stay	stim	poldrack-single-stim	s644	0	False
43.383	1.0	44.79	0.9	2.272	True	71.0	Magnitude	n/a	twobytwo	71.0	0.507	blue	9.0	task_switch	magnitude	switch	stim	poldrack-single-stim	s644	0	False
46.566	1.0	48.104	0.9	3.224	True	89.0	High-Low	switch	twobytwo	89.0	0.638	orange	1.0	cue_switch	magnitude	stay	stim	poldrack-single-stim	s644	0	False
49.9	1.0	50.983	0.1	2.0	True	71.0	Magnitude	switch	twobytwo	71.0	0.983	blue	8.0	cue_switch	magnitude	stay	stim	poldrack-single-stim	s644	0	False
52.811	1.0	54.121	0.9	2.0	True	89.0	Color	n/a	twobytwo	89.0	0.41	orange	9.0	task_switch	color	switch	stim	poldrack-single-stim	s644	0	False
55.723	1.0	57.187	0.9	2.272	True	89.0	Magnitude	n/a	twobytwo	89.0	0.564	orange	1.0	task_switch	magnitude	switch	stim	poldrack-single-stim	s644	0	False
58.908	1.0	60.44	0.9	2.136	True	71.0	Color	n/a	twobytwo	71.0	0.632	blue	9.0	task_switch	color	switch	stim	poldrack-single-stim	s644	0	False
61.953	1.0	63.681	0.9	2.0	True	71.0	Orange-Blue	switch	twobytwo	71.0	0.828	blue	6.0	cue_switch	color	stay	stim	poldrack-single-stim	s644	0	False
64.064	1.0	65.232	0.1	2.0	True	71.0	Orange-Blue	stay	twobytwo	71.0	1.068	blue	9.0	cue_stay	color	stay	stim	poldrack-single-stim	s644	0	False
66.974	1.0	68.795	0.9	2.0	True	89.0	Orange-Blue	stay	twobytwo	89.0	0.921	orange	2.0	cue_stay	color	stay	stim	poldrack-single-stim	s644	0	False
69.084	1.0	70.023	0.1	2.68	True	71.0	Orange-Blue	stay	twobytwo	71.0	0.839	blue	8.0	cue_stay	color	stay	stim	poldrack-single-stim	s644	0	False
72.674	1.0	74.776	0.9	2.0	True	89.0	High-Low	n/a	twobytwo	89.0	1.202	orange	2.0	task_switch	magnitude	switch	stim	poldrack-single-stim	s644	0	False
74.785	1.0	76.521	0.1	2.272	True	89.0	Color	n/a	twobytwo	89.0	1.636	orange	4.0	task_switch	color	switch	stim	poldrack-single-stim	s644	0	False
77.967	1.0	79.972	0.9	2.0	True	71.0	High-Low	n/a	twobytwo	71.0	1.105	blue	6.0	task_switch	magnitude	switch	stim	poldrack-single-stim	s644	0	False
80.874	1.0	82.276	0.9	2.272	True	89.0	Magnitude	switch	twobytwo	89.0	0.502	orange	2.0	cue_switch	magnitude	stay	stim	poldrack-single-stim	s644	0	False
84.056	1.0	85.777	0.9	2.952	True	71.0	High-Low	switch	twobytwo	71.0	0.821	orange	8.0	cue_switch	magnitude	stay	stim	poldrack-single-stim	s644	0	False
87.92	1.0	89.683	0.9	2.0	False	89.0	Color	n/a	twobytwo	71.0	0.863	orange	6.0	task_switch	color	switch	stim	poldrack-single-stim	s644	0	False
90.832	1.0	92.284	0.9	2.0	True	89.0	Orange-Blue	switch	twobytwo	89.0	0.552	orange	8.0	cue_switch	color	stay	stim	poldrack-single-stim	s644	0	False
92.942	1.0	94.157	0.1	2.0	True	71.0	Magnitude	n/a	twobytwo	71.0	1.115	blue	7.0	task_switch	magnitude	switch	stim	poldrack-single-stim	s644	0	False
95.854	1.0	97.479	0.9	2.0	True	89.0	Magnitude	stay	twobytwo	89.0	0.725	orange	3.0	cue_stay	magnitude	stay	stim	poldrack-single-stim	s644	0	False
98.766	1.0	100.439	0.9	2.136	True	71.0	High-Low	switch	twobytwo	71.0	0.773	orange	8.0	cue_switch	magnitude	stay	stim	poldrack-single-stim	s644	0	False
101.014	1.0	101.813	0.1	2.0	True	89.0	Color	n/a	twobytwo	89.0	0.699	orange	1.0	task_switch	color	switch	stim	poldrack-single-stim	s644	0	False
103.927	1.0	105.438	0.9	2.0	True	71.0	High-Low	n/a	twobytwo	71.0	0.611	orange	9.0	task_switch	magnitude	switch	stim	poldrack-single-stim	s644	0	False
106.037	1.0	106.962	0.1	2.0	True	89.0	Magnitude	switch	twobytwo	89.0	0.825	orange	1.0	cue_switch	magnitude	stay	stim	poldrack-single-stim	s644	0	False
108.148	1.0	108.906	0.1	2.272	True	89.0	Color	n/a	twobytwo	89.0	0.658	orange	4.0	task_switch	color	switch	stim	poldrack-single-stim	s644	0	False
111.331	1.0	112.768	0.9	2.136	True	89.0	High-Low	n/a	twobytwo	89.0	0.537	orange	1.0	task_switch	magnitude	switch	stim	poldrack-single-stim	s644	0	False
113.576	1.0	114.529	0.1	2.0	False	89.0	Orange-Blue	n/a	twobytwo	71.0	0.853	orange	9.0	task_switch	color	switch	stim	poldrack-single-stim	s644	0	False
116.489	1.0	118.335	0.9	2.136	True	71.0	Magnitude	n/a	twobytwo	71.0	0.946	orange	8.0	task_switch	magnitude	switch	stim	poldrack-single-stim	s644	0	False
119.534	1.0	121.04	0.9	2.816	False	89.0	Orange-Blue	n/a	twobytwo	71.0	0.606	orange	9.0	task_switch	color	switch	stim	poldrack-single-stim	s644	0	False
122.461	1.0	123.59	0.1	2.408	True	89.0	Color	switch	twobytwo	89.0	1.029	orange	2.0	cue_switch	color	stay	stim	poldrack-single-stim	s644	0	False
125.781	1.0	127.312	0.9	2.0	True	71.0	Magnitude	n/a	twobytwo	71.0	0.631	orange	6.0	task_switch	magnitude	switch	stim	poldrack-single-stim	s644	0	False
127.893	1.0	129.223	0.1	2.136	True	89.0	Color	n/a	twobytwo	89.0	1.23	orange	2.0	task_switch	color	switch	stim	poldrack-single-stim	s644	0	False
130.143	1.0	131.385	0.1	2.136	True	89.0	Color	stay	twobytwo	89.0	1.142	orange	1.0	cue_stay	color	stay	stim	poldrack-single-stim	s644	0	False
132.39	1.0	133.61	0.1	2.136	True	71.0	Orange-Blue	switch	twobytwo	71.0	1.12	blue	4.0	cue_switch	color	stay	stim	poldrack-single-stim	s644	0	False
134.637	1.0	135.626	0.1	2.544	False	71.0	Magnitude	n/a	twobytwo	89.0	0.889	orange	8.0	task_switch	magnitude	switch	stim	poldrack-single-stim	s644	0	False
137.286	1.0	138.62	0.1	2.136	False	71.0	Color	n/a	twobytwo	89.0	1.234	blue	2.0	task_switch	color	switch	stim	poldrack-single-stim	s644	0	False
139.534	1.0	140.711	0.1	2.0	True	89.0	High-Low	n/a	twobytwo	89.0	1.077	orange	3.0	task_switch	magnitude	switch	stim	poldrack-single-stim	s644	0	False
142.445	1.0	143.879	0.9	2.0	True	89.0	Orange-Blue	n/a	twobytwo	89.0	0.534	orange	1.0	task_switch	color	switch	stim	poldrack-single-stim	s644	0	False
144.557	1.0	145.515	0.1	2.0	True	89.0	Orange-Blue	stay	twobytwo	89.0	0.858	orange	4.0	cue_stay	color	stay	stim	poldrack-single-stim	s644	0	False
147.468	1.0	148.855	0.9	2.0	True	71.0	High-Low	n/a	twobytwo	71.0	0.487	orange	6.0	task_switch	magnitude	switch	stim	poldrack-single-stim	s644	0	False
149.578	1.0	150.516	0.1	2.136	True	71.0	Orange-Blue	n/a	twobytwo	71.0	0.838	blue	8.0	task_switch	color	switch	stim	poldrack-single-stim	s644	0	False
151.825	1.0	153.058	0.1	2.0	False	89.0	Color	switch	twobytwo	71.0	1.133	orange	7.0	cue_switch	color	stay	stim	poldrack-single-stim	s644	0	False
153.937	1.0	154.774	0.1	2.0	True	71.0	Orange-Blue	switch	twobytwo	71.0	0.737	blue	9.0	cue_switch	color	stay	stim	poldrack-single-stim	s644	0	False
156.848	1.0	158.189	0.9	2.0	True	89.0	Orange-Blue	stay	twobytwo	89.0	0.441	orange	8.0	cue_stay	color	stay	stim	poldrack-single-stim	s644	0	False
159.759	1.0	161.278	0.9	2.136	True	89.0	Magnitude	n/a	twobytwo	89.0	0.619	orange	1.0	task_switch	magnitude	switch	stim	poldrack-single-stim	s644	0	False
162.807	1.0	164.445	0.9	2.136	True	89.0	Color	n/a	twobytwo	89.0	0.738	orange	8.0	task_switch	color	switch	stim	poldrack-single-stim	s644	0	False
165.851	1.0	167.386	0.9	2.136	True	71.0	Color	stay	twobytwo	71.0	0.635	blue	9.0	cue_stay	color	stay	stim	poldrack-single-stim	s644	0	False
168.9	1.0	170.313	0.9	2.136	True	89.0	High-Low	n/a	twobytwo	89.0	0.513	orange	2.0	task_switch	magnitude	switch	stim	poldrack-single-stim	s644	0	False
171.147	1.0	172.111	0.1	2.68	True	71.0	High-Low	stay	twobytwo	71.0	0.864	orange	8.0	cue_stay	magnitude	stay	stim	poldrack-single-stim	s644	0	False
174.738	1.0	176.089	0.9	2.544	True	71.0	Magnitude	switch	twobytwo	71.0	0.451	orange	8.0	cue_switch	magnitude	stay	stim	poldrack-single-stim	s644	0	False
178.19	1.0	179.661	0.9	2.272	True	71.0	High-Low	switch	twobytwo	71.0	0.571	blue	9.0	cue_switch	magnitude	stay	stim	poldrack-single-stim	s644	0	False
181.372	1.0	182.896	0.9	2.272	True	71.0	Magnitude	switch	twobytwo	71.0	0.624	blue	8.0	cue_switch	magnitude	stay	stim	poldrack-single-stim	s644	0	False
183.754	1.0	184.516	0.1	2.408	False	89.0	Color	n/a	twobytwo	71.0	0.662	orange	7.0	task_switch	color	switch	stim	poldrack-single-stim	s644	0	False
187.075	1.0	188.534	0.9	2.136	True	71.0	Color	stay	twobytwo	71.0	0.559	blue	4.0	cue_stay	color	stay	stim	poldrack-single-stim	s644	0	False
190.122	1.0	191.97	0.9	2.272	True	71.0	High-Low	n/a	twobytwo	71.0	0.948	blue	6.0	task_switch	magnitude	switch	stim	poldrack-single-stim	s644	0	False
192.502	1.0	193.413	0.1	2.0	True	89.0	Magnitude	switch	twobytwo	89.0	0.811	orange	3.0	cue_switch	magnitude	stay	stim	poldrack-single-stim	s644	0	False
195.413	1.0	196.853	0.9	2.136	True	71.0	High-Low	switch	twobytwo	71.0	0.54	orange	9.0	cue_switch	magnitude	stay	stim	poldrack-single-stim	s644	0	False
197.658	1.0	198.521	0.1	2.272	True	89.0	High-Low	stay	twobytwo	89.0	0.763	blue	2.0	cue_stay	magnitude	stay	stim	poldrack-single-stim	s644	0	False
200.842	1.0	202.402	0.9	2.0	True	71.0	Orange-Blue	n/a	twobytwo	71.0	0.66	blue	3.0	task_switch	color	switch	stim	poldrack-single-stim	s644	0	False
203.752	1.0	205.215	0.9	2.68	True	71.0	Magnitude	n/a	twobytwo	71.0	0.563	blue	6.0	task_switch	magnitude	switch	stim	poldrack-single-stim	s644	0	False
206.543	1.0	207.414	0.1	2.0	True	89.0	High-Low	switch	twobytwo	89.0	0.771	blue	2.0	cue_switch	magnitude	stay	stim	poldrack-single-stim	s644	0	False
208.655	1.0	209.411	0.1	2.0	False	71.0	Orange-Blue	n/a	twobytwo	89.0	0.656	blue	1.0	task_switch	color	switch	stim	poldrack-single-stim	s644	0	False
210.768	1.0	211.761	0.1	2.0	True	71.0	Orange-Blue	stay	twobytwo	71.0	0.893	blue	7.0	cue_stay	color	stay	stim	poldrack-single-stim	s644	0	False
213.679	1.0	215.251	0.9	2.272	True	89.0	High-Low	n/a	twobytwo	89.0	0.672	blue	1.0	task_switch	magnitude	switch	stim	poldrack-single-stim	s644	0	False
216.863	1.0	218.525	0.9	2.0	True	71.0	Color	n/a	twobytwo	71.0	0.762	blue	7.0	task_switch	color	switch	stim	poldrack-single-stim	s644	0	False
219.776	1.0	221.2	0.9	2.0	True	71.0	Magnitude	n/a	twobytwo	71.0	0.524	blue	6.0	task_switch	magnitude	switch	stim	poldrack-single-stim	s644	0	False
222.686	1.0	224.419	0.9	2.0	True	89.0	Color	n/a	twobytwo	89.0	0.833	orange	1.0	task_switch	color	switch	stim	poldrack-single-stim	s644	0	False
239.122	1.0	240.523	0.9	2.68	True	71.0	Orange-Blue	switch	twobytwo	71.0	0.501	blue	8.0	cue_switch	color	stay	stim	poldrack-single-stim	s644	1	False
241.915	1.0	242.815	0.1	2.0	True	71.0	High-Low	n/a	twobytwo	71.0	0.8	blue	7.0	task_switch	magnitude	switch	stim	poldrack-single-stim	s644	0	False
244.824	1.0	246.153	0.9	2.136	True	89.0	Orange-Blue	n/a	twobytwo	89.0	0.429	orange	4.0	task_switch	color	switch	stim	poldrack-single-stim	s644	0	False
247.869	1.0	249.309	0.9	2.408	True	89.0	Orange-Blue	stay	twobytwo	89.0	0.54	orange	7.0	cue_stay	color	stay	stim	poldrack-single-stim	s644	0	False
250.388	1.0	251.499	0.1	2.136	True	89.0	Magnitude	n/a	twobytwo	89.0	1.011	blue	3.0	task_switch	magnitude	switch	stim	poldrack-single-stim	s644	0	False
253.435	1.0	254.875	0.9	2.0	True	71.0	Magnitude	stay	twobytwo	71.0	0.54	blue	8.0	cue_stay	magnitude	stay	stim	poldrack-single-stim	s644	0	False
255.544	1.0	255.543	0.1	2.0	False	89.0	High-Low	switch	twobytwo	-1.0	n/a	orange	4.0	cue_switch	magnitude	stay	stim	poldrack-single-stim	s644	0	False
257.653	1.0	258.448	0.1	2.544	False	71.0	High-Low	stay	twobytwo	89.0	0.695	orange	7.0	cue_stay	magnitude	stay	stim	poldrack-single-stim	s644	0	False
261.112	1.0	262.55	0.9	2.136	True	89.0	High-Low	stay	twobytwo	89.0	0.538	blue	4.0	cue_stay	magnitude	stay	stim	poldrack-single-stim	s644	0	False
264.16	1.0	265.575	0.9	2.544	True	89.0	Orange-Blue	n/a	twobytwo	89.0	0.515	orange	6.0	task_switch	color	switch	stim	poldrack-single-stim	s644	0	False
266.815	1.0	267.689	0.1	2.68	True	89.0	Magnitude	n/a	twobytwo	89.0	0.774	blue	2.0	task_switch	magnitude	switch	stim	poldrack-single-stim	s644	0	False
270.407	1.0	271.908	0.9	2.0	True	89.0	Magnitude	stay	twobytwo	89.0	0.601	blue	2.0	cue_stay	magnitude	stay	stim	poldrack-single-stim	s644	0	False
272.517	1.0	273.47	0.1	2.272	True	89.0	High-Low	switch	twobytwo	89.0	0.853	orange	4.0	cue_switch	magnitude	stay	stim	poldrack-single-stim	s644	0	False
275.7	1.0	277.102	0.9	3.088	True	89.0	High-Low	stay	twobytwo	89.0	0.502	orange	4.0	cue_stay	magnitude	stay	stim	poldrack-single-stim	s644	0	False
279.701	1.0	281.153	0.9	2.0	True	71.0	Color	n/a	twobytwo	71.0	0.552	blue	9.0	task_switch	color	switch	stim	poldrack-single-stim	s644	0	False
282.613	1.0	284.189	0.9	2.136	True	89.0	Orange-Blue	switch	twobytwo	89.0	0.676	orange	1.0	cue_switch	color	stay	stim	poldrack-single-stim	s644	0	False
284.857	1.0	285.795	0.1	2.136	True	71.0	Color	switch	twobytwo	71.0	0.838	blue	8.0	cue_switch	color	stay	stim	poldrack-single-stim	s644	0	False
287.903	1.0	289.293	0.9	2.0	True	71.0	Magnitude	n/a	twobytwo	71.0	0.49	orange	9.0	task_switch	magnitude	switch	stim	poldrack-single-stim	s644	0	False
290.813	1.0	292.602	0.9	2.272	True	89.0	Orange-Blue	n/a	twobytwo	89.0	0.889	orange	1.0	task_switch	color	switch	stim	poldrack-single-stim	s644	0	False
293.996	1.0	295.51	0.9	2.0	True	71.0	Magnitude	n/a	twobytwo	71.0	0.614	blue	9.0	task_switch	magnitude	switch	stim	poldrack-single-stim	s644	0	False
296.907	1.0	298.507	0.9	2.136	True	71.0	High-Low	switch	twobytwo	71.0	0.7	blue	6.0	cue_switch	magnitude	stay	stim	poldrack-single-stim	s644	0	False
299.155	1.0	299.996	0.1	2.136	True	71.0	High-Low	stay	twobytwo	71.0	0.741	blue	9.0	cue_stay	magnitude	stay	stim	poldrack-single-stim	s644	0	False
302.202	1.0	303.761	0.9	2.544	True	89.0	High-Low	stay	twobytwo	89.0	0.659	orange	2.0	cue_stay	magnitude	stay	stim	poldrack-single-stim	s644	0	False
304.856	1.0	305.853	0.1	2.0	True	71.0	High-Low	stay	twobytwo	71.0	0.897	blue	8.0	cue_stay	magnitude	stay	stim	poldrack-single-stim	s644	0	False
307.768	1.0	309.417	0.9	2.136	True	89.0	Color	n/a	twobytwo	89.0	0.749	orange	2.0	task_switch	color	switch	stim	poldrack-single-stim	s644	0	False
310.012	1.0	310.78	0.1	2.136	True	89.0	High-Low	n/a	twobytwo	89.0	0.668	orange	4.0	task_switch	magnitude	switch	stim	poldrack-single-stim	s644	0	False
313.061	1.0	314.611	0.9	2.136	True	71.0	Orange-Blue	n/a	twobytwo	71.0	0.65	blue	6.0	task_switch	color	switch	stim	poldrack-single-stim	s644	0	False
316.107	1.0	317.484	0.9	2.0	True	89.0	Color	switch	twobytwo	89.0	0.477	orange	2.0	cue_switch	color	stay	stim	poldrack-single-stim	s644	0	False
319.019	1.0	320.521	0.9	2.136	True	89.0	Orange-Blue	switch	twobytwo	89.0	0.602	orange	8.0	cue_switch	color	stay	stim	poldrack-single-stim	s644	0	False
322.065	1.0	323.497	0.9	2.0	True	71.0	Magnitude	n/a	twobytwo	71.0	0.532	orange	6.0	task_switch	magnitude	switch	stim	poldrack-single-stim	s644	0	False
324.974	1.0	326.449	0.9	2.136	True	71.0	High-Low	switch	twobytwo	71.0	0.575	orange	8.0	cue_switch	magnitude	stay	stim	poldrack-single-stim	s644	0	False
327.219	1.0	328.445	0.1	2.816	True	71.0	Orange-Blue	n/a	twobytwo	71.0	1.126	blue	7.0	task_switch	color	switch	stim	poldrack-single-stim	s644	0	False
330.947	1.0	332.481	0.9	2.136	True	89.0	Orange-Blue	stay	twobytwo	89.0	0.634	orange	3.0	cue_stay	color	stay	stim	poldrack-single-stim	s644	0	False
333.994	1.0	335.736	0.9	2.0	False	89.0	Color	switch	twobytwo	71.0	0.842	orange	8.0	cue_switch	color	stay	stim	poldrack-single-stim	s644	0	False
336.103	1.0	337.138	0.1	2.0	True	89.0	High-Low	n/a	twobytwo	89.0	0.935	orange	1.0	task_switch	magnitude	switch	stim	poldrack-single-stim	s644	0	False
339.014	1.0	340.395	0.9	2.272	True	89.0	Color	n/a	twobytwo	89.0	0.481	orange	9.0	task_switch	color	switch	stim	poldrack-single-stim	s644	0	False
341.395	1.0	342.251	0.1	2.0	True	89.0	Orange-Blue	switch	twobytwo	89.0	0.756	orange	1.0	cue_switch	color	stay	stim	poldrack-single-stim	s644	0	False
343.507	1.0	344.306	0.1	2.0	True	89.0	Magnitude	n/a	twobytwo	89.0	0.699	orange	4.0	task_switch	magnitude	switch	stim	poldrack-single-stim	s644	0	False
346.42	1.0	347.821	0.9	2.0	True	89.0	Orange-Blue	n/a	twobytwo	89.0	0.501	orange	1.0	task_switch	color	switch	stim	poldrack-single-stim	s644	0	False
348.531	1.0	349.401	0.1	2.408	False	71.0	Magnitude	n/a	twobytwo	89.0	0.77	orange	9.0	task_switch	magnitude	switch	stim	poldrack-single-stim	s644	0	False
351.85	1.0	353.733	0.9	2.272	True	89.0	Color	n/a	twobytwo	89.0	0.983	orange	8.0	task_switch	color	switch	stim	poldrack-single-stim	s644	0	False
355.034	1.0	356.438	0.9	2.136	True	71.0	High-Low	n/a	twobytwo	71.0	0.504	orange	9.0	task_switch	magnitude	switch	stim	poldrack-single-stim	s644	0	False
357.281	1.0	358.131	0.1	2.0	True	89.0	Magnitude	switch	twobytwo	89.0	0.75	orange	2.0	cue_switch	magnitude	stay	stim	poldrack-single-stim	s644	0	False
360.19	1.0	362.218	0.9	2.0	True	89.0	Color	n/a	twobytwo	89.0	1.128	orange	6.0	task_switch	color	switch	stim	poldrack-single-stim	s644	0	False
362.301	1.0	363.36	0.1	2.136	True	89.0	Magnitude	n/a	twobytwo	89.0	0.959	orange	2.0	task_switch	magnitude	switch	stim	poldrack-single-stim	s644	0	False
364.545	1.0	365.26	0.1	2.0	True	89.0	Magnitude	stay	twobytwo	89.0	0.615	orange	1.0	cue_stay	magnitude	stay	stim	poldrack-single-stim	s644	0	False
366.657	1.0	366.656	0.1	2.136	False	89.0	High-Low	switch	twobytwo	-1.0	n/a	blue	4.0	cue_switch	magnitude	stay	stim	poldrack-single-stim	s644	0	False
368.903	1.0	369.807	0.1	2.408	True	89.0	Color	n/a	twobytwo	89.0	0.804	orange	8.0	task_switch	color	switch	stim	poldrack-single-stim	s644	0	False
371.423	1.0	372.534	0.1	2.136	True	89.0	High-Low	n/a	twobytwo	89.0	1.011	blue	2.0	task_switch	magnitude	switch	stim	poldrack-single-stim	s644	0	False
373.672	1.0	374.606	0.1	2.0	True	89.0	Color	n/a	twobytwo	89.0	0.834	orange	3.0	task_switch	color	switch	stim	poldrack-single-stim	s644	0	False
376.584	1.0	378.068	0.9	2.136	True	89.0	Magnitude	n/a	twobytwo	89.0	0.584	orange	1.0	task_switch	magnitude	switch	stim	poldrack-single-stim	s644	0	False
378.832	1.0	379.591	0.1	2.272	True	89.0	Magnitude	stay	twobytwo	89.0	0.659	orange	4.0	cue_stay	magnitude	stay	stim	poldrack-single-stim	s644	0	False
382.015	1.0	383.582	0.9	2.0	True	89.0	Color	n/a	twobytwo	89.0	0.667	orange	6.0	task_switch	color	switch	stim	poldrack-single-stim	s644	0	False
384.125	1.0	384.899	0.1	2.408	True	71.0	High-Low	n/a	twobytwo	71.0	0.674	blue	8.0	task_switch	magnitude	switch	stim	poldrack-single-stim	s644	0	False
386.641	1.0	387.463	0.1	2.0	False	71.0	Magnitude	switch	twobytwo	89.0	0.722	orange	7.0	cue_switch	magnitude	stay	stim	poldrack-single-stim	s644	0	False
388.752	1.0	389.663	0.1	2.136	True	71.0	High-Low	switch	twobytwo	71.0	0.811	blue	9.0	cue_switch	magnitude	stay	stim	poldrack-single-stim	s644	0	False
391.798	1.0	393.224	0.9	2.408	True	71.0	High-Low	stay	twobytwo	71.0	0.526	orange	8.0	cue_stay	magnitude	stay	stim	poldrack-single-stim	s644	0	False
395.113	1.0	396.564	0.9	2.136	True	89.0	Color	n/a	twobytwo	89.0	0.551	orange	1.0	task_switch	color	switch	stim	poldrack-single-stim	s644	0	False
398.159	1.0	399.569	0.9	2.408	True	71.0	Magnitude	n/a	twobytwo	71.0	0.51	orange	8.0	task_switch	magnitude	switch	stim	poldrack-single-stim	s644	0	False
401.478	1.0	402.97	0.9	2.136	True	71.0	Magnitude	stay	twobytwo	71.0	0.592	blue	9.0	cue_stay	magnitude	stay	stim	poldrack-single-stim	s644	0	False
404.524	1.0	405.957	0.9	2.0	True	89.0	Color	n/a	twobytwo	89.0	0.533	orange	2.0	task_switch	color	switch	stim	poldrack-single-stim	s644	0	False
406.636	1.0	407.405	0.1	2.272	True	89.0	Color	stay	twobytwo	89.0	0.669	orange	8.0	cue_stay	color	stay	stim	poldrack-single-stim	s644	0	False
409.817	1.0	411.581	0.9	2.0	True	89.0	Orange-Blue	switch	twobytwo	89.0	0.864	orange	8.0	cue_switch	color	stay	stim	poldrack-single-stim	s644	0	False
412.73	1.0	414.48	0.9	2.272	False	71.0	Color	switch	twobytwo	89.0	0.85	blue	9.0	cue_switch	color	stay	stim	poldrack-single-stim	s644	0	False
415.913	1.0	417.531	0.9	2.272	True	71.0	Orange-Blue	switch	twobytwo	71.0	0.718	blue	8.0	cue_switch	color	stay	stim	poldrack-single-stim	s644	0	False
418.296	1.0	419.065	0.1	2.952	False	71.0	High-Low	n/a	twobytwo	89.0	0.669	orange	7.0	task_switch	magnitude	switch	stim	poldrack-single-stim	s644	0	False
422.16	1.0	424.028	0.9	2.68	True	89.0	High-Low	stay	twobytwo	89.0	0.968	blue	4.0	cue_stay	magnitude	stay	stim	poldrack-single-stim	s644	0	False
425.752	1.0	427.983	0.9	2.136	True	71.0	Orange-Blue	n/a	twobytwo	71.0	1.331	blue	6.0	task_switch	color	switch	stim	poldrack-single-stim	s644	0	False
428.0	1.0	429.216	0.1	2.272	True	89.0	Color	switch	twobytwo	89.0	1.116	orange	3.0	cue_switch	color	stay	stim	poldrack-single-stim	s644	0	False
431.185	1.0	432.52	0.9	2.272	True	89.0	Orange-Blue	switch	twobytwo	89.0	0.435	orange	9.0	cue_switch	color	stay	stim	poldrack-single-stim	s644	0	False
433.566	1.0	434.559	0.1	2.136	False	71.0	Orange-Blue	stay	twobytwo	89.0	0.893	blue	2.0	cue_stay	color	stay	stim	poldrack-single-stim	s644	0	False
436.613	1.0	438.079	0.9	2.408	True	89.0	Magnitude	n/a	twobytwo	89.0	0.566	blue	3.0	task_switch	magnitude	switch	stim	poldrack-single-stim	s644	0	False
439.933	1.0	441.681	0.9	2.136	False	71.0	Color	n/a	twobytwo	89.0	0.848	blue	6.0	task_switch	color	switch	stim	poldrack-single-stim	s644	0	False
442.18	1.0	443.597	0.1	2.136	True	71.0	Orange-Blue	switch	twobytwo	71.0	1.317	blue	2.0	cue_switch	color	stay	stim	poldrack-single-stim	s644	0	False
444.426	1.0	445.463	0.1	2.0	True	89.0	High-Low	n/a	twobytwo	89.0	0.937	blue	1.0	task_switch	magnitude	switch	stim	poldrack-single-stim	s644	0	False
446.535	1.0	447.453	0.1	2.0	True	71.0	High-Low	stay	twobytwo	71.0	0.818	blue	7.0	cue_stay	magnitude	stay	stim	poldrack-single-stim	s644	0	False
449.447	1.0	451.03	0.9	2.0	False	71.0	Orange-Blue	n/a	twobytwo	89.0	0.683	blue	1.0	task_switch	color	switch	stim	poldrack-single-stim	s644	0	False
452.357	1.0	453.991	0.9	2.0	True	71.0	Magnitude	n/a	twobytwo	71.0	0.734	blue	7.0	task_switch	magnitude	switch	stim	poldrack-single-stim	s644	0	False
455.27	1.0	456.843	0.9	2.0	True	71.0	Color	n/a	twobytwo	71.0	0.673	blue	6.0	task_switch	color	switch	stim	poldrack-single-stim	s644	0	False
458.183	1.0	459.582	0.9	2.272	True	89.0	Magnitude	n/a	twobytwo	89.0	0.499	orange	1.0	task_switch	magnitude	switch	stim	poldrack-single-stim	s644	0	False
474.892	1.0	476.331	0.9	2.408	True	71.0	High-Low	switch	twobytwo	71.0	0.539	blue	8.0	cue_switch	magnitude	stay	stim	poldrack-single-stim	s644	1	False
477.408	1.0	478.615	0.1	2.0	True	71.0	Color	n/a	twobytwo	71.0	1.107	blue	7.0	task_switch	color	switch	stim	poldrack-single-stim	s644	0	False
480.321	1.0	481.79	0.9	2.136	True	89.0	High-Low	n/a	twobytwo	89.0	0.569	orange	4.0	task_switch	magnitude	switch	stim	poldrack-single-stim	s644	0	False
483.368	1.0	484.737	0.9	2.0	True	71.0	High-Low	stay	twobytwo	71.0	0.469	orange	7.0	cue_stay	magnitude	stay	stim	poldrack-single-stim	s644	0	False
485.48	1.0	486.599	0.1	2.136	True	71.0	Orange-Blue	n/a	twobytwo	71.0	1.019	blue	3.0	task_switch	color	switch	stim	poldrack-single-stim	s644	0	False
488.526	1.0	490.03	0.9	2.544	True	71.0	Orange-Blue	stay	twobytwo	71.0	0.604	blue	8.0	cue_stay	color	stay	stim	poldrack-single-stim	s644	0	False
491.18	1.0	492.058	0.1	2.68	True	89.0	Color	switch	twobytwo	89.0	0.778	orange	4.0	cue_switch	color	stay	stim	poldrack-single-stim	s644	0	False
493.972	1.0	494.98	0.1	3.088	True	89.0	Color	stay	twobytwo	89.0	0.908	orange	7.0	cue_stay	color	stay	stim	poldrack-single-stim	s644	0	False
497.971	1.0	499.367	0.9	2.136	True	71.0	Color	stay	twobytwo	71.0	0.496	blue	4.0	cue_stay	color	stay	stim	poldrack-single-stim	s644	0	False
501.016	1.0	501.015	0.9	2.544	False	71.0	High-Low	n/a	twobytwo	-1.0	n/a	orange	6.0	task_switch	magnitude	switch	stim	poldrack-single-stim	s644	0	False
503.671	1.0	504.444	0.1	2.0	False	71.0	Color	n/a	twobytwo	89.0	0.673	blue	2.0	task_switch	color	switch	stim	poldrack-single-stim	s644	0	False
506.583	1.0	507.952	0.9	2.136	False	71.0	Color	stay	twobytwo	89.0	0.469	blue	2.0	cue_stay	color	stay	stim	poldrack-single-stim	s644	0	False
508.832	1.0	509.807	0.1	2.0	True	89.0	Orange-Blue	switch	twobytwo	89.0	0.875	orange	4.0	cue_switch	color	stay	stim	poldrack-single-stim	s644	0	False
511.744	1.0	513.252	0.9	2.408	True	89.0	Orange-Blue	stay	twobytwo	89.0	0.608	orange	4.0	cue_stay	color	stay	stim	poldrack-single-stim	s644	0	False
515.065	1.0	516.519	0.9	2.0	True	71.0	High-Low	n/a	twobytwo	71.0	0.554	blue	9.0	task_switch	magnitude	switch	stim	poldrack-single-stim	s644	0	False
517.976	1.0	519.331	0.9	2.0	True	89.0	Magnitude	switch	twobytwo	89.0	0.455	orange	1.0	cue_switch	magnitude	stay	stim	poldrack-single-stim	s644	0	False
520.088	1.0	521.321	0.1	2.0	True	71.0	High-Low	switch	twobytwo	71.0	1.133	blue	8.0	cue_switch	magnitude	stay	stim	poldrack-single-stim	s644	0	False
522.997	1.0	524.437	0.9	2.68	False	89.0	Color	n/a	twobytwo	71.0	0.54	orange	9.0	task_switch	color	switch	stim	poldrack-single-stim	s644	0	False
526.59	1.0	528.038	0.9	2.272	True	89.0	Magnitude	n/a	twobytwo	89.0	0.548	orange	1.0	task_switch	magnitude	switch	stim	poldrack-single-stim	s644	0	False
529.774	1.0	531.296	0.9	2.408	True	71.0	Color	n/a	twobytwo	71.0	0.622	blue	9.0	task_switch	color	switch	stim	poldrack-single-stim	s644	0	False
533.093	1.0	534.468	0.9	3.224	True	71.0	Orange-Blue	switch	twobytwo	71.0	0.475	blue	6.0	cue_switch	color	stay	stim	poldrack-single-stim	s644	0	False
536.431	1.0	537.388	0.1	2.408	True	71.0	Orange-Blue	stay	twobytwo	71.0	0.857	blue	9.0	cue_stay	color	stay	stim	poldrack-single-stim	s644	0	False
539.75	1.0	541.217	0.9	2.816	True	89.0	Orange-Blue	stay	twobytwo	89.0	0.567	orange	2.0	cue_stay	color	stay	stim	poldrack-single-stim	s644	0	False
542.674	1.0	543.699	0.1	2.408	True	71.0	Orange-Blue	stay	twobytwo	71.0	0.925	blue	8.0	cue_stay	color	stay	stim	poldrack-single-stim	s644	0	False
545.994	1.0	547.381	0.9	2.136	True	89.0	High-Low	n/a	twobytwo	89.0	0.487	orange	2.0	task_switch	magnitude	switch	stim	poldrack-single-stim	s644	0	False
548.243	1.0	548.242	0.1	2.136	False	89.0	Orange-Blue	n/a	twobytwo	-1.0	n/a	orange	4.0	task_switch	color	switch	stim	poldrack-single-stim	s644	0	False
551.289	1.0	552.771	0.9	2.0	True	71.0	Magnitude	n/a	twobytwo	71.0	0.582	blue	6.0	task_switch	magnitude	switch	stim	poldrack-single-stim	s644	0	False
554.2	1.0	555.834	0.9	2.0	True	89.0	High-Low	switch	twobytwo	89.0	0.734	orange	2.0	cue_switch	magnitude	stay	stim	poldrack-single-stim	s644	0	False
557.112	1.0	558.546	0.9	2.272	True	71.0	Magnitude	switch	twobytwo	71.0	0.534	orange	8.0	cue_switch	magnitude	stay	stim	poldrack-single-stim	s644	0	False
560.297	1.0	561.784	0.9	2.408	True	89.0	Color	n/a	twobytwo	89.0	0.587	orange	6.0	task_switch	color	switch	stim	poldrack-single-stim	s644	0	False
563.614	1.0	564.943	0.9	2.0	True	89.0	Orange-Blue	switch	twobytwo	89.0	0.429	orange	8.0	cue_switch	color	stay	stim	poldrack-single-stim	s644	0	False
565.725	1.0	566.499	0.1	2.136	True	71.0	Magnitude	n/a	twobytwo	71.0	0.674	blue	7.0	task_switch	magnitude	switch	stim	poldrack-single-stim	s644	0	False
568.772	1.0	570.32	0.9	2.0	True	89.0	Magnitude	stay	twobytwo	89.0	0.648	orange	3.0	cue_stay	magnitude	stay	stim	poldrack-single-stim	s644	0	False
571.684	1.0	573.112	0.9	2.408	True	71.0	High-Low	switch	twobytwo	71.0	0.528	orange	8.0	cue_switch	magnitude	stay	stim	poldrack-single-stim	s644	0	False
574.203	1.0	574.946	0.1	2.272	True	89.0	Color	n/a	twobytwo	89.0	0.643	orange	1.0	task_switch	color	switch	stim	poldrack-single-stim	s644	0	False
577.382	1.0	579.169	0.9	2.0	True	71.0	High-Low	n/a	twobytwo	71.0	0.887	orange	9.0	task_switch	magnitude	switch	stim	poldrack-single-stim	s644	0	False
579.493	1.0	580.39	0.1	2.272	True	89.0	Magnitude	switch	twobytwo	89.0	0.797	orange	1.0	cue_switch	magnitude	stay	stim	poldrack-single-stim	s644	0	False
581.875	1.0	583.135	0.1	2.0	True	89.0	Color	n/a	twobytwo	89.0	1.16	orange	4.0	task_switch	color	switch	stim	poldrack-single-stim	s644	0	False
584.787	1.0	586.204	0.9	2.0	True	89.0	High-Low	n/a	twobytwo	89.0	0.517	orange	1.0	task_switch	magnitude	switch	stim	poldrack-single-stim	s644	0	False
586.896	1.0	588.055	0.1	2.272	False	89.0	Orange-Blue	n/a	twobytwo	71.0	1.059	orange	9.0	task_switch	color	switch	stim	poldrack-single-stim	s644	0	False
590.08	1.0	591.404	0.9	2.136	True	71.0	Magnitude	n/a	twobytwo	71.0	0.424	orange	8.0	task_switch	magnitude	switch	stim	poldrack-single-stim	s644	0	False
593.127	1.0	594.817	0.9	2.0	False	89.0	Orange-Blue	n/a	twobytwo	71.0	0.79	orange	9.0	task_switch	color	switch	stim	poldrack-single-stim	s644	0	False
595.236	1.0	596.264	0.1	2.0	True	89.0	Color	switch	twobytwo	89.0	0.928	orange	2.0	cue_switch	color	stay	stim	poldrack-single-stim	s644	0	False
598.149	1.0	599.786	0.9	2.0	True	71.0	Magnitude	n/a	twobytwo	71.0	0.737	orange	6.0	task_switch	magnitude	switch	stim	poldrack-single-stim	s644	0	False
600.26	1.0	601.125	0.1	2.0	True	89.0	Orange-Blue	n/a	twobytwo	89.0	0.765	orange	2.0	task_switch	color	switch	stim	poldrack-single-stim	s644	0	False
602.37	1.0	603.058	0.1	2.0	True	89.0	Orange-Blue	stay	twobytwo	89.0	0.588	orange	1.0	cue_stay	color	stay	stim	poldrack-single-stim	s644	0	False
604.48	1.0	605.164	0.1	2.136	True	71.0	Color	switch	twobytwo	71.0	0.584	blue	4.0	cue_switch	color	stay	stim	poldrack-single-stim	s644	0	False
606.726	1.0	607.777	0.1	2.0	True	71.0	High-Low	n/a	twobytwo	71.0	0.951	orange	8.0	task_switch	magnitude	switch	stim	poldrack-single-stim	s644	0	False
608.839	1.0	609.806	0.1	2.0	False	71.0	Color	n/a	twobytwo	89.0	0.867	blue	2.0	task_switch	color	switch	stim	poldrack-single-stim	s644	0	False
610.952	1.0	612.511	0.1	2.136	True	89.0	High-Low	n/a	twobytwo	89.0	1.459	orange	3.0	task_switch	magnitude	switch	stim	poldrack-single-stim	s644	0	False
614.0	1.0	615.663	0.9	2.0	True	89.0	Orange-Blue	n/a	twobytwo	89.0	0.763	orange	1.0	task_switch	color	switch	stim	poldrack-single-stim	s644	0	False
616.11	1.0	617.29	0.1	2.136	True	89.0	Orange-Blue	stay	twobytwo	89.0	1.08	orange	4.0	cue_stay	color	stay	stim	poldrack-single-stim	s644	0	False
619.155	1.0	620.629	0.9	2.68	True	71.0	Magnitude	n/a	twobytwo	71.0	0.574	orange	6.0	task_switch	magnitude	switch	stim	poldrack-single-stim	s644	0	False
621.946	1.0	622.876	0.1	2.272	True	71.0	Orange-Blue	n/a	twobytwo	71.0	0.83	blue	8.0	task_switch	color	switch	stim	poldrack-single-stim	s644	0	False
624.331	1.0	625.3	0.1	2.136	False	89.0	Color	switch	twobytwo	71.0	0.869	orange	7.0	cue_switch	color	stay	stim	poldrack-single-stim	s644	0	False
626.578	1.0	627.366	0.1	2.0	True	71.0	Orange-Blue	switch	twobytwo	71.0	0.688	blue	9.0	cue_switch	color	stay	stim	poldrack-single-stim	s644	0	False
629.491	1.0	631.131	0.9	2.136	False	89.0	Orange-Blue	stay	twobytwo	71.0	0.74	orange	8.0	cue_stay	color	stay	stim	poldrack-single-stim	s644	0	False
632.54	1.0	633.975	0.9	2.68	True	89.0	High-Low	n/a	twobytwo	89.0	0.535	orange	1.0	task_switch	magnitude	switch	stim	poldrack-single-stim	s644	0	False
636.133	1.0	637.663	0.9	2.272	False	89.0	Orange-Blue	n/a	twobytwo	71.0	0.63	orange	8.0	task_switch	color	switch	stim	poldrack-single-stim	s644	0	False
639.314	1.0	641.042	0.9	2.0	True	71.0	Orange-Blue	stay	twobytwo	71.0	0.828	blue	9.0	cue_stay	color	stay	stim	poldrack-single-stim	s644	0	False
642.226	1.0	643.836	0.9	2.0	True	89.0	High-Low	n/a	twobytwo	89.0	0.71	orange	2.0	task_switch	magnitude	switch	stim	poldrack-single-stim	s644	0	False
644.338	1.0	645.371	0.1	2.136	True	71.0	High-Low	stay	twobytwo	71.0	0.933	orange	8.0	cue_stay	magnitude	stay	stim	poldrack-single-stim	s644	0	False
647.383	1.0	648.808	0.9	2.0	True	71.0	Magnitude	switch	twobytwo	71.0	0.525	orange	8.0	cue_switch	magnitude	stay	stim	poldrack-single-stim	s644	0	False
650.294	1.0	652.145	0.9	2.0	True	71.0	High-Low	switch	twobytwo	71.0	0.951	blue	9.0	cue_switch	magnitude	stay	stim	poldrack-single-stim	s644	0	False
653.205	1.0	654.83	0.9	2.0	True	71.0	Magnitude	switch	twobytwo	71.0	0.725	blue	8.0	cue_switch	magnitude	stay	stim	poldrack-single-stim	s644	0	False
655.312	1.0	656.515	0.1	2.272	True	89.0	Orange-Blue	n/a	twobytwo	89.0	1.103	orange	7.0	task_switch	color	switch	stim	poldrack-single-stim	s644	0	False
658.496	1.0	659.907	0.9	2.408	True	71.0	Orange-Blue	stay	twobytwo	71.0	0.511	blue	4.0	cue_stay	color	stay	stim	poldrack-single-stim	s644	0	False
661.815	1.0	663.397	0.9	2.0	True	71.0	High-Low	n/a	twobytwo	71.0	0.682	blue	6.0	task_switch	magnitude	switch	stim	poldrack-single-stim	s644	0	False
663.925	1.0	664.806	0.1	2.0	True	89.0	Magnitude	switch	twobytwo	89.0	0.781	orange	3.0	cue_switch	magnitude	stay	stim	poldrack-single-stim	s644	0	False
666.836	1.0	668.486	0.9	2.0	True	71.0	High-Low	switch	twobytwo	71.0	0.75	orange	9.0	cue_switch	magnitude	stay	stim	poldrack-single-stim	s644	0	False
668.947	1.0	669.903	0.1	2.272	True	89.0	High-Low	stay	twobytwo	89.0	0.856	blue	2.0	cue_stay	magnitude	stay	stim	poldrack-single-stim	s644	0	False
672.13	1.0	673.496	0.9	2.136	True	71.0	Color	n/a	twobytwo	71.0	0.466	blue	3.0	task_switch	color	switch	stim	poldrack-single-stim	s644	0	False
675.178	1.0	676.641	0.9	2.0	True	71.0	Magnitude	n/a	twobytwo	71.0	0.563	blue	6.0	task_switch	magnitude	switch	stim	poldrack-single-stim	s644	0	False
677.288	1.0	678.185	0.1	2.544	True	89.0	High-Low	switch	twobytwo	89.0	0.797	blue	2.0	cue_switch	magnitude	stay	stim	poldrack-single-stim	s644	0	False
679.943	1.0	680.702	0.1	2.272	False	71.0	Color	n/a	twobytwo	89.0	0.659	blue	1.0	task_switch	color	switch	stim	poldrack-single-stim	s644	0	False
682.325	1.0	683.129	0.1	2.272	True	71.0	Color	stay	twobytwo	71.0	0.704	blue	7.0	cue_stay	color	stay	stim	poldrack-single-stim	s644	0	False
685.505	1.0	687.275	0.9	2.0	False	89.0	High-Low	n/a	twobytwo	71.0	0.87	blue	1.0	task_switch	magnitude	switch	stim	poldrack-single-stim	s644	0	False
688.418	1.0	689.847	0.9	2.0	True	71.0	Color	n/a	twobytwo	71.0	0.529	blue	7.0	task_switch	color	switch	stim	poldrack-single-stim	s644	0	False
691.33	1.0	692.98	0.9	2.136	True	71.0	High-Low	n/a	twobytwo	71.0	0.75	blue	6.0	task_switch	magnitude	switch	stim	poldrack-single-stim	s644	0	False
694.379	1.0	695.762	0.9	2.0	True	89.0	Color	n/a	twobytwo	89.0	0.483	orange	1.0	task_switch	color	switch	stim	poldrack-single-stim	s644	0	False
