onset	duration	movement_onset	CTI	block_duration	correct	correct_response	cue	cue_switch	experiment_exp_id	key_press	response_time	stim_color	stim_number	switch_type	task	task_switch	trial_id	trial_type	worker_id	first_trial_of_block	junk
3.63	1.0	4.619	0.1	2.272	True	71.0	Magnitude	stay	twobytwo	71.0	0.889	blue	3.0	cue_stay	magnitude	stay	stim	poldrack-single-stim	s645	1	False
6.81	1.0	8.214	0.9	2.136	True	71.0	Orange-Blue	n/a	twobytwo	71.0	0.504	blue	8.0	task_switch	color	switch	stim	poldrack-single-stim	s645	0	False
9.057	1.0	9.798	0.1	2.0	True	89.0	Color	switch	twobytwo	89.0	0.641	orange	7.0	cue_switch	color	stay	stim	poldrack-single-stim	s645	0	False
11.17	1.0	12.152	0.1	2.0	True	89.0	Magnitude	n/a	twobytwo	89.0	0.882	orange	7.0	task_switch	magnitude	switch	stim	poldrack-single-stim	s645	0	False
14.081	1.0	15.466	0.9	2.136	True	89.0	Orange-Blue	n/a	twobytwo	89.0	0.485	orange	2.0	task_switch	color	switch	stim	poldrack-single-stim	s645	0	False
17.129	1.0	18.635	0.9	2.0	True	71.0	High-Low	n/a	twobytwo	71.0	0.606	orange	1.0	task_switch	magnitude	switch	stim	poldrack-single-stim	s645	0	False
19.241	1.0	20.172	0.1	2.136	False	71.0	Color	n/a	twobytwo	89.0	0.831	blue	1.0	task_switch	color	switch	stim	poldrack-single-stim	s645	0	False
21.489	1.0	22.247	0.1	2.408	True	71.0	Color	stay	twobytwo	71.0	0.658	blue	7.0	cue_stay	color	stay	stim	poldrack-single-stim	s645	0	False
24.809	1.0	26.646	0.9	2.136	True	89.0	High-Low	n/a	twobytwo	89.0	0.937	blue	9.0	task_switch	magnitude	switch	stim	poldrack-single-stim	s645	0	False
27.856	1.0	29.339	0.9	2.0	True	71.0	Color	n/a	twobytwo	71.0	0.583	blue	6.0	task_switch	color	switch	stim	poldrack-single-stim	s645	0	False
30.767	1.0	32.552	0.9	2.136	True	71.0	Magnitude	n/a	twobytwo	71.0	0.885	blue	3.0	task_switch	magnitude	switch	stim	poldrack-single-stim	s645	0	False
33.815	1.0	35.268	0.9	2.272	True	89.0	Magnitude	stay	twobytwo	89.0	0.553	blue	9.0	cue_stay	magnitude	stay	stim	poldrack-single-stim	s645	0	False
36.999	1.0	38.308	0.9	2.0	True	71.0	Color	n/a	twobytwo	71.0	0.409	blue	9.0	task_switch	color	switch	stim	poldrack-single-stim	s645	0	False
39.106	1.0	39.864	0.1	2.408	True	71.0	High-Low	n/a	twobytwo	71.0	0.658	orange	4.0	task_switch	magnitude	switch	stim	poldrack-single-stim	s645	0	False
42.425	1.0	43.954	0.9	2.0	True	89.0	Magnitude	switch	twobytwo	89.0	0.629	orange	7.0	cue_switch	magnitude	stay	stim	poldrack-single-stim	s645	0	False
45.336	1.0	46.764	0.9	2.136	True	71.0	Orange-Blue	n/a	twobytwo	71.0	0.528	blue	1.0	task_switch	color	switch	stim	poldrack-single-stim	s645	0	False
47.585	1.0	48.231	0.1	2.408	True	89.0	High-Low	n/a	twobytwo	89.0	0.546	blue	7.0	task_switch	magnitude	switch	stim	poldrack-single-stim	s645	0	False
50.903	1.0	52.523	0.9	2.136	False	89.0	Color	n/a	twobytwo	71.0	0.72	orange	3.0	task_switch	color	switch	stim	poldrack-single-stim	s645	0	False
53.952	1.0	55.325	0.9	2.408	True	89.0	Magnitude	n/a	twobytwo	89.0	0.473	orange	7.0	task_switch	magnitude	switch	stim	poldrack-single-stim	s645	0	False
56.468	1.0	57.11	0.1	2.136	True	89.0	Orange-Blue	n/a	twobytwo	89.0	0.542	orange	4.0	task_switch	color	switch	stim	poldrack-single-stim	s645	0	False
58.715	1.0	59.34	0.1	2.0	True	89.0	Color	switch	twobytwo	89.0	0.525	orange	9.0	cue_switch	color	stay	stim	poldrack-single-stim	s645	0	False
61.626	1.0	62.944	0.9	2.272	True	89.0	Color	stay	twobytwo	89.0	0.418	orange	6.0	cue_stay	color	stay	stim	poldrack-single-stim	s645	0	False
64.008	1.0	64.666	0.1	2.0	True	89.0	Magnitude	n/a	twobytwo	89.0	0.558	orange	9.0	task_switch	magnitude	switch	stim	poldrack-single-stim	s645	0	False
66.92	1.0	68.312	0.9	2.272	True	89.0	Color	n/a	twobytwo	89.0	0.492	orange	2.0	task_switch	color	switch	stim	poldrack-single-stim	s645	0	False
70.103	1.0	71.42	0.9	2.272	True	89.0	Orange-Blue	switch	twobytwo	89.0	0.417	orange	6.0	cue_switch	color	stay	stim	poldrack-single-stim	s645	0	False
72.486	1.0	73.091	0.1	2.952	True	89.0	Color	switch	twobytwo	89.0	0.505	orange	9.0	cue_switch	color	stay	stim	poldrack-single-stim	s645	0	False
75.545	1.0	76.161	0.1	2.68	True	71.0	Color	stay	twobytwo	71.0	0.516	blue	2.0	cue_stay	color	stay	stim	poldrack-single-stim	s645	0	False
79.138	1.0	80.519	0.9	2.136	True	89.0	Color	stay	twobytwo	89.0	0.481	orange	9.0	cue_stay	color	stay	stim	poldrack-single-stim	s645	0	False
82.185	1.0	83.506	0.9	2.272	True	89.0	Color	stay	twobytwo	89.0	0.421	orange	6.0	cue_stay	color	stay	stim	poldrack-single-stim	s645	0	False
85.369	1.0	86.629	0.9	2.272	True	71.0	Orange-Blue	switch	twobytwo	71.0	0.36	blue	4.0	cue_switch	color	stay	stim	poldrack-single-stim	s645	0	False
88.552	1.0	89.981	0.9	2.136	True	71.0	High-Low	n/a	twobytwo	71.0	0.529	blue	4.0	task_switch	magnitude	switch	stim	poldrack-single-stim	s645	0	False
90.798	1.0	91.45	0.1	2.408	True	71.0	Magnitude	switch	twobytwo	71.0	0.552	orange	3.0	cue_switch	magnitude	stay	stim	poldrack-single-stim	s645	0	False
93.317	1.0	93.948	0.1	2.136	True	89.0	High-Low	switch	twobytwo	89.0	0.531	blue	6.0	cue_switch	magnitude	stay	stim	poldrack-single-stim	s645	0	False
95.564	1.0	96.18	0.1	2.136	False	71.0	Magnitude	switch	twobytwo	89.0	0.516	orange	2.0	cue_switch	magnitude	stay	stim	poldrack-single-stim	s645	0	False
98.608	1.0	100.084	0.9	2.0	True	71.0	High-Low	switch	twobytwo	71.0	0.576	blue	1.0	cue_switch	magnitude	stay	stim	poldrack-single-stim	s645	0	False
101.52	1.0	102.877	0.9	2.0	True	71.0	High-Low	stay	twobytwo	71.0	0.457	blue	2.0	cue_stay	magnitude	stay	stim	poldrack-single-stim	s645	0	False
104.432	1.0	105.773	0.9	2.0	True	71.0	Magnitude	switch	twobytwo	71.0	0.441	blue	3.0	cue_switch	magnitude	stay	stim	poldrack-single-stim	s645	0	False
106.545	1.0	107.218	0.1	2.0	False	89.0	High-Low	switch	twobytwo	71.0	0.573	blue	6.0	cue_switch	magnitude	stay	stim	poldrack-single-stim	s645	0	False
108.657	1.0	109.339	0.1	2.0	True	71.0	Magnitude	switch	twobytwo	71.0	0.582	blue	2.0	cue_switch	magnitude	stay	stim	poldrack-single-stim	s645	0	False
110.768	1.0	111.503	0.1	2.272	True	71.0	High-Low	switch	twobytwo	71.0	0.635	orange	2.0	cue_switch	magnitude	stay	stim	poldrack-single-stim	s645	0	False
113.15	1.0	113.733	0.1	2.408	False	89.0	Magnitude	switch	twobytwo	71.0	0.483	blue	8.0	cue_switch	magnitude	stay	stim	poldrack-single-stim	s645	0	False
116.47	1.0	117.897	0.9	2.0	True	89.0	Magnitude	stay	twobytwo	89.0	0.527	blue	7.0	cue_stay	magnitude	stay	stim	poldrack-single-stim	s645	0	False
119.382	1.0	121.116	0.9	2.136	True	71.0	Orange-Blue	n/a	twobytwo	71.0	0.834	blue	8.0	task_switch	color	switch	stim	poldrack-single-stim	s645	0	False
122.427	1.0	123.827	0.9	2.0	True	71.0	Color	switch	twobytwo	71.0	0.5	blue	2.0	cue_switch	color	stay	stim	poldrack-single-stim	s645	0	False
125.338	1.0	126.849	0.9	2.136	True	89.0	High-Low	n/a	twobytwo	89.0	0.611	blue	8.0	task_switch	magnitude	switch	stim	poldrack-single-stim	s645	0	False
128.385	1.0	129.819	0.9	2.544	True	71.0	Orange-Blue	n/a	twobytwo	71.0	0.534	blue	7.0	task_switch	color	switch	stim	poldrack-single-stim	s645	0	False
131.04	1.0	132.186	0.1	2.68	True	71.0	High-Low	n/a	twobytwo	71.0	1.046	blue	3.0	task_switch	magnitude	switch	stim	poldrack-single-stim	s645	0	False
133.831	1.0	134.548	0.1	3.088	True	89.0	Magnitude	switch	twobytwo	89.0	0.617	blue	7.0	cue_switch	magnitude	stay	stim	poldrack-single-stim	s645	0	False
137.831	1.0	139.309	0.9	2.136	True	89.0	High-Low	switch	twobytwo	89.0	0.578	blue	6.0	cue_switch	magnitude	stay	stim	poldrack-single-stim	s645	0	False
140.078	1.0	140.828	0.1	2.544	True	71.0	Magnitude	switch	twobytwo	71.0	0.65	blue	4.0	cue_switch	magnitude	stay	stim	poldrack-single-stim	s645	0	False
143.53	1.0	145.065	0.9	2.0	True	71.0	High-Low	switch	twobytwo	71.0	0.635	blue	3.0	cue_switch	magnitude	stay	stim	poldrack-single-stim	s645	0	False
146.441	1.0	147.831	0.9	2.136	True	89.0	Color	n/a	twobytwo	89.0	0.49	orange	9.0	task_switch	color	switch	stim	poldrack-single-stim	s645	0	False
149.488	1.0	151.066	0.9	2.0	True	89.0	High-Low	n/a	twobytwo	89.0	0.678	blue	8.0	task_switch	magnitude	switch	stim	poldrack-single-stim	s645	0	False
151.599	1.0	152.438	0.1	2.408	False	71.0	Orange-Blue	n/a	twobytwo	89.0	0.739	blue	9.0	task_switch	color	switch	stim	poldrack-single-stim	s645	0	False
154.117	1.0	154.723	0.1	2.0	True	89.0	Color	switch	twobytwo	89.0	0.506	orange	4.0	cue_switch	color	stay	stim	poldrack-single-stim	s645	0	False
157.027	1.0	158.394	0.9	2.0	True	71.0	Color	stay	twobytwo	71.0	0.467	blue	9.0	cue_stay	color	stay	stim	poldrack-single-stim	s645	0	False
159.134	1.0	160.112	0.1	2.0	True	71.0	Magnitude	n/a	twobytwo	71.0	0.878	blue	2.0	task_switch	magnitude	switch	stim	poldrack-single-stim	s645	0	False
161.245	1.0	162.142	0.1	2.68	True	89.0	Magnitude	stay	twobytwo	89.0	0.797	blue	7.0	cue_stay	magnitude	stay	stim	poldrack-single-stim	s645	0	False
164.838	1.0	166.207	0.9	2.272	True	89.0	High-Low	switch	twobytwo	89.0	0.469	blue	7.0	cue_switch	magnitude	stay	stim	poldrack-single-stim	s645	0	False
167.223	1.0	168.325	0.1	2.408	True	71.0	High-Low	stay	twobytwo	71.0	1.002	orange	2.0	cue_stay	magnitude	stay	stim	poldrack-single-stim	s645	0	False
170.541	1.0	171.951	0.9	3.224	True	71.0	High-Low	stay	twobytwo	71.0	0.51	orange	1.0	cue_stay	magnitude	stay	stim	poldrack-single-stim	s645	0	False
173.875	1.0	174.578	0.1	2.408	True	71.0	Orange-Blue	n/a	twobytwo	71.0	0.603	blue	1.0	task_switch	color	switch	stim	poldrack-single-stim	s645	0	False
176.393	1.0	177.508	0.1	2.816	True	71.0	Magnitude	n/a	twobytwo	71.0	1.015	orange	2.0	task_switch	magnitude	switch	stim	poldrack-single-stim	s645	0	False
179.319	1.0	179.927	0.1	2.408	False	71.0	Orange-Blue	n/a	twobytwo	89.0	0.508	blue	2.0	task_switch	color	switch	stim	poldrack-single-stim	s645	0	False
182.638	1.0	183.923	0.9	2.136	True	71.0	High-Low	n/a	twobytwo	71.0	0.385	orange	2.0	task_switch	magnitude	switch	stim	poldrack-single-stim	s645	0	False
185.684	1.0	187.076	0.9	2.136	True	89.0	High-Low	stay	twobytwo	89.0	0.492	blue	6.0	cue_stay	magnitude	stay	stim	poldrack-single-stim	s645	0	False
188.734	1.0	190.187	0.9	2.0	True	89.0	Magnitude	switch	twobytwo	89.0	0.553	blue	9.0	cue_switch	magnitude	stay	stim	poldrack-single-stim	s645	0	False
191.645	1.0	192.989	0.9	2.0	True	89.0	High-Low	switch	twobytwo	89.0	0.444	orange	6.0	cue_switch	magnitude	stay	stim	poldrack-single-stim	s645	0	False
194.556	1.0	195.882	0.9	2.272	True	89.0	Orange-Blue	n/a	twobytwo	89.0	0.426	orange	1.0	task_switch	color	switch	stim	poldrack-single-stim	s645	0	False
197.74	1.0	199.15	0.9	2.408	True	89.0	Magnitude	n/a	twobytwo	89.0	0.51	orange	8.0	task_switch	magnitude	switch	stim	poldrack-single-stim	s645	0	False
201.059	1.0	202.417	0.9	2.0	True	71.0	Orange-Blue	n/a	twobytwo	71.0	0.458	blue	4.0	task_switch	color	switch	stim	poldrack-single-stim	s645	0	False
203.17	1.0	204.134	0.1	2.136	True	89.0	Color	switch	twobytwo	89.0	0.864	orange	2.0	cue_switch	color	stay	stim	poldrack-single-stim	s645	0	False
206.216	1.0	207.606	0.9	2.0	True	71.0	High-Low	n/a	twobytwo	71.0	0.49	orange	4.0	task_switch	magnitude	switch	stim	poldrack-single-stim	s645	0	False
209.128	1.0	210.478	0.9	2.408	True	89.0	Orange-Blue	n/a	twobytwo	89.0	0.45	orange	7.0	task_switch	color	switch	stim	poldrack-single-stim	s645	0	False
211.647	1.0	212.314	0.1	2.272	True	71.0	Color	switch	twobytwo	71.0	0.567	blue	2.0	cue_switch	color	stay	stim	poldrack-single-stim	s645	0	False
214.029	1.0	214.772	0.1	2.0	True	89.0	Magnitude	n/a	twobytwo	89.0	0.643	orange	8.0	task_switch	magnitude	switch	stim	poldrack-single-stim	s645	0	False
216.139	1.0	217.301	0.1	2.272	True	89.0	High-Low	switch	twobytwo	89.0	1.062	blue	7.0	cue_switch	magnitude	stay	stim	poldrack-single-stim	s645	0	False
218.523	1.0	219.188	0.1	2.0	True	89.0	Color	n/a	twobytwo	89.0	0.565	orange	8.0	task_switch	color	switch	stim	poldrack-single-stim	s645	0	False
221.435	1.0	222.829	0.9	2.0	True	71.0	Magnitude	n/a	twobytwo	71.0	0.494	blue	2.0	task_switch	magnitude	switch	stim	poldrack-single-stim	s645	0	False
224.345	1.0	225.609	0.9	2.272	True	89.0	Magnitude	stay	twobytwo	89.0	0.364	blue	7.0	cue_stay	magnitude	stay	stim	poldrack-single-stim	s645	0	False
240.253	1.0	241.052	0.1	2.136	True	71.0	Color	stay	twobytwo	71.0	0.699	blue	3.0	cue_stay	color	stay	stim	poldrack-single-stim	s645	1	False
243.3	1.0	244.774	0.9	2.0	True	89.0	Magnitude	n/a	twobytwo	89.0	0.574	blue	8.0	task_switch	magnitude	switch	stim	poldrack-single-stim	s645	0	False
245.413	1.0	246.237	0.1	2.0	True	89.0	High-Low	switch	twobytwo	89.0	0.724	orange	7.0	cue_switch	magnitude	stay	stim	poldrack-single-stim	s645	0	False
247.525	1.0	248.155	0.1	2.0	True	89.0	Orange-Blue	n/a	twobytwo	89.0	0.53	orange	7.0	task_switch	color	switch	stim	poldrack-single-stim	s645	0	False
250.437	1.0	251.867	0.9	2.0	True	71.0	High-Low	n/a	twobytwo	71.0	0.53	orange	2.0	task_switch	magnitude	switch	stim	poldrack-single-stim	s645	0	False
253.347	1.0	254.674	0.9	2.0	True	89.0	Orange-Blue	n/a	twobytwo	89.0	0.427	orange	1.0	task_switch	color	switch	stim	poldrack-single-stim	s645	0	False
255.459	1.0	256.306	0.1	2.136	False	71.0	High-Low	n/a	twobytwo	89.0	0.747	blue	1.0	task_switch	magnitude	switch	stim	poldrack-single-stim	s645	0	False
257.708	1.0	258.647	0.1	2.0	True	89.0	High-Low	stay	twobytwo	89.0	0.839	blue	7.0	cue_stay	magnitude	stay	stim	poldrack-single-stim	s645	0	False
260.62	1.0	262.071	0.9	2.0	True	71.0	Orange-Blue	n/a	twobytwo	71.0	0.551	blue	9.0	task_switch	color	switch	stim	poldrack-single-stim	s645	0	False
263.533	1.0	264.879	0.9	2.136	True	89.0	Magnitude	n/a	twobytwo	89.0	0.446	blue	6.0	task_switch	magnitude	switch	stim	poldrack-single-stim	s645	0	False
266.578	1.0	268.121	0.9	2.0	True	71.0	Color	n/a	twobytwo	71.0	0.643	blue	3.0	task_switch	color	switch	stim	poldrack-single-stim	s645	0	False
269.49	1.0	270.831	0.9	2.136	True	71.0	Color	stay	twobytwo	71.0	0.441	blue	9.0	cue_stay	color	stay	stim	poldrack-single-stim	s645	0	False
272.536	1.0	274.003	0.9	2.68	True	89.0	Magnitude	n/a	twobytwo	89.0	0.567	blue	9.0	task_switch	magnitude	switch	stim	poldrack-single-stim	s645	0	False
275.326	1.0	276.163	0.1	2.272	False	89.0	Color	n/a	twobytwo	71.0	0.737	orange	4.0	task_switch	color	switch	stim	poldrack-single-stim	s645	0	False
278.51	1.0	279.869	0.9	2.136	True	89.0	Orange-Blue	switch	twobytwo	89.0	0.459	orange	7.0	cue_switch	color	stay	stim	poldrack-single-stim	s645	0	False
281.554	1.0	283.028	0.9	2.0	True	71.0	High-Low	n/a	twobytwo	71.0	0.574	blue	1.0	task_switch	magnitude	switch	stim	poldrack-single-stim	s645	0	False
283.663	1.0	284.596	0.1	2.136	True	71.0	Orange-Blue	n/a	twobytwo	71.0	0.833	blue	7.0	task_switch	color	switch	stim	poldrack-single-stim	s645	0	False
286.712	1.0	288.229	0.9	2.68	False	71.0	High-Low	n/a	twobytwo	89.0	0.617	orange	3.0	task_switch	magnitude	switch	stim	poldrack-single-stim	s645	0	False
290.305	1.0	291.586	0.9	2.272	True	89.0	Orange-Blue	n/a	twobytwo	89.0	0.381	orange	7.0	task_switch	color	switch	stim	poldrack-single-stim	s645	0	False
292.689	1.0	293.589	0.1	2.0	True	71.0	Magnitude	n/a	twobytwo	71.0	0.8	orange	4.0	task_switch	magnitude	switch	stim	poldrack-single-stim	s645	0	False
294.801	1.0	295.521	0.1	2.0	True	89.0	High-Low	switch	twobytwo	89.0	0.62	orange	9.0	cue_switch	magnitude	stay	stim	poldrack-single-stim	s645	0	False
297.713	1.0	299.185	0.9	2.136	True	89.0	High-Low	stay	twobytwo	89.0	0.572	orange	6.0	cue_stay	magnitude	stay	stim	poldrack-single-stim	s645	0	False
299.959	1.0	300.686	0.1	2.0	True	89.0	Color	n/a	twobytwo	89.0	0.627	orange	9.0	task_switch	color	switch	stim	poldrack-single-stim	s645	0	False
302.87	1.0	304.371	0.9	2.0	True	71.0	Magnitude	n/a	twobytwo	71.0	0.601	orange	2.0	task_switch	magnitude	switch	stim	poldrack-single-stim	s645	0	False
305.781	1.0	307.246	0.9	2.0	True	89.0	High-Low	switch	twobytwo	89.0	0.565	orange	6.0	cue_switch	magnitude	stay	stim	poldrack-single-stim	s645	0	False
307.891	1.0	308.878	0.1	2.272	True	89.0	Magnitude	switch	twobytwo	89.0	0.887	orange	9.0	cue_switch	magnitude	stay	stim	poldrack-single-stim	s645	0	False
310.272	1.0	310.945	0.1	2.408	True	71.0	Magnitude	stay	twobytwo	71.0	0.573	blue	2.0	cue_stay	magnitude	stay	stim	poldrack-single-stim	s645	0	False
313.59	1.0	315.02	0.9	2.0	True	89.0	Magnitude	stay	twobytwo	89.0	0.53	orange	9.0	cue_stay	magnitude	stay	stim	poldrack-single-stim	s645	0	False
316.501	1.0	317.862	0.9	2.0	True	89.0	Magnitude	stay	twobytwo	89.0	0.461	orange	6.0	cue_stay	magnitude	stay	stim	poldrack-single-stim	s645	0	False
319.413	1.0	320.882	0.9	2.0	True	71.0	High-Low	switch	twobytwo	71.0	0.569	blue	4.0	cue_switch	magnitude	stay	stim	poldrack-single-stim	s645	0	False
322.324	1.0	323.637	0.9	2.272	True	71.0	Orange-Blue	n/a	twobytwo	71.0	0.413	blue	4.0	task_switch	color	switch	stim	poldrack-single-stim	s645	0	False
324.706	1.0	325.405	0.1	2.136	True	89.0	Color	switch	twobytwo	89.0	0.599	orange	3.0	cue_switch	color	stay	stim	poldrack-single-stim	s645	0	False
326.953	1.0	327.632	0.1	2.0	False	71.0	Orange-Blue	switch	twobytwo	89.0	0.579	blue	6.0	cue_switch	color	stay	stim	poldrack-single-stim	s645	0	False
329.066	1.0	330.024	0.1	2.544	True	89.0	Color	switch	twobytwo	89.0	0.858	orange	2.0	cue_switch	color	stay	stim	poldrack-single-stim	s645	0	False
332.522	1.0	333.964	0.9	2.272	True	71.0	Orange-Blue	switch	twobytwo	71.0	0.542	blue	1.0	cue_switch	color	stay	stim	poldrack-single-stim	s645	0	False
335.703	1.0	337.028	0.9	2.272	True	71.0	Orange-Blue	stay	twobytwo	71.0	0.425	blue	2.0	cue_stay	color	stay	stim	poldrack-single-stim	s645	0	False
338.886	1.0	340.285	0.9	2.0	True	71.0	Color	switch	twobytwo	71.0	0.499	blue	3.0	cue_switch	color	stay	stim	poldrack-single-stim	s645	0	False
340.998	1.0	341.662	0.1	2.0	True	71.0	Orange-Blue	switch	twobytwo	71.0	0.564	blue	6.0	cue_switch	color	stay	stim	poldrack-single-stim	s645	0	False
343.11	1.0	343.694	0.1	2.136	True	71.0	Color	switch	twobytwo	71.0	0.484	blue	2.0	cue_switch	color	stay	stim	poldrack-single-stim	s645	0	False
345.359	1.0	346.014	0.1	2.0	True	89.0	Orange-Blue	switch	twobytwo	89.0	0.555	orange	2.0	cue_switch	color	stay	stim	poldrack-single-stim	s645	0	False
347.47	1.0	348.154	0.1	2.136	False	71.0	Color	switch	twobytwo	89.0	0.584	blue	8.0	cue_switch	color	stay	stim	poldrack-single-stim	s645	0	False
350.518	1.0	351.893	0.9	2.272	True	71.0	Color	stay	twobytwo	71.0	0.475	blue	7.0	cue_stay	color	stay	stim	poldrack-single-stim	s645	0	False
353.701	1.0	355.207	0.9	2.136	False	89.0	Magnitude	n/a	twobytwo	71.0	0.606	blue	8.0	task_switch	magnitude	switch	stim	poldrack-single-stim	s645	0	False
356.749	1.0	358.309	0.9	2.272	True	71.0	High-Low	switch	twobytwo	71.0	0.66	blue	2.0	cue_switch	magnitude	stay	stim	poldrack-single-stim	s645	0	False
359.933	1.0	361.322	0.9	2.0	True	71.0	Orange-Blue	n/a	twobytwo	71.0	0.489	blue	8.0	task_switch	color	switch	stim	poldrack-single-stim	s645	0	False
362.845	1.0	364.167	0.9	2.816	True	89.0	Magnitude	n/a	twobytwo	89.0	0.422	blue	7.0	task_switch	magnitude	switch	stim	poldrack-single-stim	s645	0	False
365.772	1.0	366.591	0.1	2.408	True	71.0	Color	n/a	twobytwo	71.0	0.719	blue	3.0	task_switch	color	switch	stim	poldrack-single-stim	s645	0	False
368.292	1.0	369.039	0.1	2.0	True	71.0	Orange-Blue	switch	twobytwo	71.0	0.647	blue	7.0	cue_switch	color	stay	stim	poldrack-single-stim	s645	0	False
371.203	1.0	372.684	0.9	2.544	True	71.0	Color	switch	twobytwo	71.0	0.581	blue	6.0	cue_switch	color	stay	stim	poldrack-single-stim	s645	0	False
373.856	1.0	374.531	0.1	2.136	True	71.0	Orange-Blue	switch	twobytwo	71.0	0.575	blue	4.0	cue_switch	color	stay	stim	poldrack-single-stim	s645	0	False
376.904	1.0	378.183	0.9	2.0	True	71.0	Color	switch	twobytwo	71.0	0.379	blue	3.0	cue_switch	color	stay	stim	poldrack-single-stim	s645	0	False
379.815	1.0	381.154	0.9	2.0	True	89.0	High-Low	n/a	twobytwo	89.0	0.439	orange	9.0	task_switch	magnitude	switch	stim	poldrack-single-stim	s645	0	False
382.725	1.0	384.05	0.9	2.136	True	71.0	Color	n/a	twobytwo	71.0	0.425	blue	8.0	task_switch	color	switch	stim	poldrack-single-stim	s645	0	False
384.972	1.0	385.667	0.1	2.136	False	89.0	Magnitude	n/a	twobytwo	71.0	0.595	blue	9.0	task_switch	magnitude	switch	stim	poldrack-single-stim	s645	0	False
387.218	1.0	387.217	0.1	2.272	False	71.0	High-Low	switch	twobytwo	-1.0	n/a	orange	4.0	cue_switch	magnitude	stay	stim	poldrack-single-stim	s645	0	False
390.401	1.0	391.717	0.9	3.224	True	89.0	High-Low	stay	twobytwo	89.0	0.416	blue	9.0	cue_stay	magnitude	stay	stim	poldrack-single-stim	s645	0	False
393.732	1.0	394.435	0.1	2.0	True	71.0	Color	n/a	twobytwo	71.0	0.603	blue	2.0	task_switch	color	switch	stim	poldrack-single-stim	s645	0	False
395.843	1.0	396.614	0.1	2.0	True	71.0	Color	stay	twobytwo	71.0	0.671	blue	7.0	cue_stay	color	stay	stim	poldrack-single-stim	s645	0	False
398.755	1.0	400.236	0.9	2.272	False	71.0	Orange-Blue	switch	twobytwo	89.0	0.581	blue	7.0	cue_switch	color	stay	stim	poldrack-single-stim	s645	0	False
401.136	1.0	401.755	0.1	2.136	True	89.0	Orange-Blue	stay	twobytwo	89.0	0.519	orange	2.0	cue_stay	color	stay	stim	poldrack-single-stim	s645	0	False
404.184	1.0	405.582	0.9	2.0	True	89.0	Orange-Blue	stay	twobytwo	89.0	0.498	orange	1.0	cue_stay	color	stay	stim	poldrack-single-stim	s645	0	False
406.296	1.0	407.197	0.1	2.0	True	71.0	Magnitude	n/a	twobytwo	71.0	0.801	blue	1.0	task_switch	magnitude	switch	stim	poldrack-single-stim	s645	0	False
408.409	1.0	409.284	0.1	2.0	True	89.0	Color	n/a	twobytwo	89.0	0.775	orange	2.0	task_switch	color	switch	stim	poldrack-single-stim	s645	0	False
410.521	1.0	411.217	0.1	2.68	True	71.0	High-Low	n/a	twobytwo	71.0	0.596	blue	2.0	task_switch	magnitude	switch	stim	poldrack-single-stim	s645	0	False
414.112	1.0	415.565	0.9	2.0	True	89.0	Orange-Blue	n/a	twobytwo	89.0	0.553	orange	2.0	task_switch	color	switch	stim	poldrack-single-stim	s645	0	False
417.024	1.0	418.433	0.9	2.272	True	71.0	Orange-Blue	stay	twobytwo	71.0	0.509	blue	6.0	cue_stay	color	stay	stim	poldrack-single-stim	s645	0	False
420.207	1.0	421.69	0.9	2.0	True	71.0	Color	switch	twobytwo	71.0	0.583	blue	9.0	cue_switch	color	stay	stim	poldrack-single-stim	s645	0	False
423.118	1.0	424.526	0.9	2.272	True	89.0	Orange-Blue	switch	twobytwo	89.0	0.508	orange	6.0	cue_switch	color	stay	stim	poldrack-single-stim	s645	0	False
426.301	1.0	427.692	0.9	2.952	True	71.0	Magnitude	n/a	twobytwo	71.0	0.491	orange	1.0	task_switch	magnitude	switch	stim	poldrack-single-stim	s645	0	False
430.165	1.0	431.584	0.9	2.0	True	89.0	Color	n/a	twobytwo	89.0	0.519	orange	8.0	task_switch	color	switch	stim	poldrack-single-stim	s645	0	False
433.077	1.0	434.553	0.9	2.0	True	71.0	Magnitude	n/a	twobytwo	71.0	0.576	blue	4.0	task_switch	magnitude	switch	stim	poldrack-single-stim	s645	0	False
435.19	1.0	435.931	0.1	2.0	True	71.0	High-Low	switch	twobytwo	71.0	0.641	orange	2.0	cue_switch	magnitude	stay	stim	poldrack-single-stim	s645	0	False
438.101	1.0	439.51	0.9	2.0	True	89.0	Orange-Blue	n/a	twobytwo	89.0	0.509	orange	4.0	task_switch	color	switch	stim	poldrack-single-stim	s645	0	False
441.013	1.0	442.426	0.9	2.136	True	89.0	Magnitude	n/a	twobytwo	89.0	0.513	orange	7.0	task_switch	magnitude	switch	stim	poldrack-single-stim	s645	0	False
443.258	1.0	444.067	0.1	2.0	True	71.0	High-Low	switch	twobytwo	71.0	0.709	blue	2.0	cue_switch	magnitude	stay	stim	poldrack-single-stim	s645	0	False
445.371	1.0	446.023	0.1	2.0	True	89.0	Color	n/a	twobytwo	89.0	0.552	orange	8.0	task_switch	color	switch	stim	poldrack-single-stim	s645	0	False
447.48	1.0	448.125	0.1	2.0	True	71.0	Orange-Blue	switch	twobytwo	71.0	0.545	blue	7.0	cue_switch	color	stay	stim	poldrack-single-stim	s645	0	False
449.592	1.0	450.255	0.1	2.272	True	89.0	High-Low	n/a	twobytwo	89.0	0.563	orange	8.0	task_switch	magnitude	switch	stim	poldrack-single-stim	s645	0	False
452.775	1.0	454.257	0.9	2.136	True	71.0	Color	n/a	twobytwo	71.0	0.582	blue	2.0	task_switch	color	switch	stim	poldrack-single-stim	s645	0	False
455.822	1.0	457.6	0.9	2.0	True	71.0	Color	stay	twobytwo	71.0	0.878	blue	7.0	cue_stay	color	stay	stim	poldrack-single-stim	s645	0	False
471.456	1.0	472.249	0.1	2.136	True	71.0	Color	stay	twobytwo	71.0	0.693	blue	3.0	cue_stay	color	stay	stim	poldrack-single-stim	s645	1	False
474.503	1.0	475.819	0.9	2.816	True	89.0	High-Low	n/a	twobytwo	89.0	0.416	blue	8.0	task_switch	magnitude	switch	stim	poldrack-single-stim	s645	0	False
477.43	1.0	478.276	0.1	2.408	True	89.0	Magnitude	switch	twobytwo	89.0	0.746	orange	7.0	cue_switch	magnitude	stay	stim	poldrack-single-stim	s645	0	False
479.947	1.0	480.571	0.1	2.0	True	89.0	Color	n/a	twobytwo	89.0	0.524	orange	7.0	task_switch	color	switch	stim	poldrack-single-stim	s645	0	False
482.859	1.0	484.179	0.9	2.136	True	71.0	High-Low	n/a	twobytwo	71.0	0.42	orange	2.0	task_switch	magnitude	switch	stim	poldrack-single-stim	s645	0	False
485.908	1.0	487.294	0.9	2.136	True	89.0	Orange-Blue	n/a	twobytwo	89.0	0.486	orange	1.0	task_switch	color	switch	stim	poldrack-single-stim	s645	0	False
488.152	1.0	488.932	0.1	2.136	True	71.0	Magnitude	n/a	twobytwo	71.0	0.68	blue	1.0	task_switch	magnitude	switch	stim	poldrack-single-stim	s645	0	False
490.397	1.0	491.158	0.1	2.544	True	89.0	Magnitude	stay	twobytwo	89.0	0.661	blue	7.0	cue_stay	magnitude	stay	stim	poldrack-single-stim	s645	0	False
493.855	1.0	495.399	0.9	2.136	True	71.0	Color	n/a	twobytwo	71.0	0.644	blue	9.0	task_switch	color	switch	stim	poldrack-single-stim	s645	0	False
496.903	1.0	498.424	0.9	2.0	True	89.0	High-Low	n/a	twobytwo	89.0	0.621	blue	6.0	task_switch	magnitude	switch	stim	poldrack-single-stim	s645	0	False
499.813	1.0	501.281	0.9	2.0	True	71.0	Color	n/a	twobytwo	71.0	0.568	blue	3.0	task_switch	color	switch	stim	poldrack-single-stim	s645	0	False
502.725	1.0	504.056	0.9	2.0	True	71.0	Color	stay	twobytwo	71.0	0.431	blue	9.0	cue_stay	color	stay	stim	poldrack-single-stim	s645	0	False
505.638	1.0	507.227	0.9	2.0	True	89.0	Magnitude	n/a	twobytwo	89.0	0.689	blue	9.0	task_switch	magnitude	switch	stim	poldrack-single-stim	s645	0	False
507.751	1.0	508.408	0.1	2.136	True	89.0	Color	n/a	twobytwo	89.0	0.557	orange	4.0	task_switch	color	switch	stim	poldrack-single-stim	s645	0	False
510.799	1.0	512.195	0.9	2.0	True	89.0	Orange-Blue	switch	twobytwo	89.0	0.496	orange	7.0	cue_switch	color	stay	stim	poldrack-single-stim	s645	0	False
514.937	1.0	516.325	0.9	2.0	True	71.0	Magnitude	n/a	twobytwo	71.0	0.488	blue	1.0	task_switch	magnitude	switch	stim	poldrack-single-stim	s645	0	False
517.05	1.0	517.794	0.1	2.0	True	71.0	Color	n/a	twobytwo	71.0	0.644	blue	7.0	task_switch	color	switch	stim	poldrack-single-stim	s645	0	False
519.961	1.0	521.614	0.9	2.136	True	71.0	High-Low	n/a	twobytwo	71.0	0.753	orange	3.0	task_switch	magnitude	switch	stim	poldrack-single-stim	s645	0	False
523.008	1.0	524.417	0.9	2.136	True	89.0	Orange-Blue	n/a	twobytwo	89.0	0.509	orange	7.0	task_switch	color	switch	stim	poldrack-single-stim	s645	0	False
525.256	1.0	526.068	0.1	2.136	True	71.0	Magnitude	n/a	twobytwo	71.0	0.712	orange	4.0	task_switch	magnitude	switch	stim	poldrack-single-stim	s645	0	False
527.504	1.0	528.255	0.1	2.136	True	89.0	High-Low	switch	twobytwo	89.0	0.651	orange	9.0	cue_switch	magnitude	stay	stim	poldrack-single-stim	s645	0	False
530.551	1.0	532.071	0.9	2.68	True	89.0	High-Low	stay	twobytwo	89.0	0.62	orange	6.0	cue_stay	magnitude	stay	stim	poldrack-single-stim	s645	0	False
533.341	1.0	533.998	0.1	2.544	True	89.0	Color	n/a	twobytwo	89.0	0.557	orange	9.0	task_switch	color	switch	stim	poldrack-single-stim	s645	0	False
536.794	1.0	538.338	0.9	2.272	True	71.0	High-Low	n/a	twobytwo	71.0	0.644	orange	2.0	task_switch	magnitude	switch	stim	poldrack-single-stim	s645	0	False
539.978	1.0	541.514	0.9	2.272	True	89.0	Magnitude	switch	twobytwo	89.0	0.636	orange	6.0	cue_switch	magnitude	stay	stim	poldrack-single-stim	s645	0	False
542.362	1.0	543.051	0.1	2.408	True	89.0	High-Low	switch	twobytwo	89.0	0.589	orange	9.0	cue_switch	magnitude	stay	stim	poldrack-single-stim	s645	0	False
544.882	1.0	545.59	0.1	2.136	True	71.0	High-Low	stay	twobytwo	71.0	0.608	blue	2.0	cue_stay	magnitude	stay	stim	poldrack-single-stim	s645	0	False
547.93	1.0	549.349	0.9	2.272	True	89.0	High-Low	stay	twobytwo	89.0	0.519	orange	9.0	cue_stay	magnitude	stay	stim	poldrack-single-stim	s645	0	False
551.113	1.0	552.531	0.9	2.0	False	89.0	High-Low	stay	twobytwo	71.0	0.518	orange	6.0	cue_stay	magnitude	stay	stim	poldrack-single-stim	s645	0	False
554.024	1.0	555.421	0.9	2.136	True	71.0	Magnitude	switch	twobytwo	71.0	0.497	blue	4.0	cue_switch	magnitude	stay	stim	poldrack-single-stim	s645	0	False
557.071	1.0	558.367	0.9	2.272	True	71.0	Orange-Blue	n/a	twobytwo	71.0	0.396	blue	4.0	task_switch	color	switch	stim	poldrack-single-stim	s645	0	False
559.456	1.0	560.454	0.1	2.0	True	89.0	Color	switch	twobytwo	89.0	0.898	orange	3.0	cue_switch	color	stay	stim	poldrack-single-stim	s645	0	False
561.565	1.0	562.293	0.1	2.68	True	71.0	Orange-Blue	switch	twobytwo	71.0	0.628	blue	6.0	cue_switch	color	stay	stim	poldrack-single-stim	s645	0	False
564.355	1.0	565.038	0.1	2.0	True	89.0	Color	switch	twobytwo	89.0	0.583	orange	2.0	cue_switch	color	stay	stim	poldrack-single-stim	s645	0	False
567.266	1.0	568.667	0.9	2.0	True	71.0	Orange-Blue	switch	twobytwo	71.0	0.501	blue	1.0	cue_switch	color	stay	stim	poldrack-single-stim	s645	0	False
570.178	1.0	571.47	0.9	2.0	True	71.0	Orange-Blue	stay	twobytwo	71.0	0.392	blue	2.0	cue_stay	color	stay	stim	poldrack-single-stim	s645	0	False
573.089	1.0	574.412	0.9	2.272	True	71.0	Color	switch	twobytwo	71.0	0.423	blue	3.0	cue_switch	color	stay	stim	poldrack-single-stim	s645	0	False
575.473	1.0	576.387	0.1	2.0	False	71.0	Orange-Blue	switch	twobytwo	89.0	0.814	blue	6.0	cue_switch	color	stay	stim	poldrack-single-stim	s645	0	False
577.585	1.0	578.462	0.1	2.0	True	71.0	Color	switch	twobytwo	71.0	0.777	blue	2.0	cue_switch	color	stay	stim	poldrack-single-stim	s645	0	False
579.697	1.0	580.406	0.1	2.0	True	89.0	Orange-Blue	switch	twobytwo	89.0	0.609	orange	2.0	cue_switch	color	stay	stim	poldrack-single-stim	s645	0	False
581.809	1.0	582.596	0.1	2.68	True	71.0	Color	switch	twobytwo	71.0	0.687	blue	8.0	cue_switch	color	stay	stim	poldrack-single-stim	s645	0	False
585.396	1.0	586.769	0.9	2.0	True	71.0	Color	stay	twobytwo	71.0	0.473	blue	7.0	cue_stay	color	stay	stim	poldrack-single-stim	s645	0	False
588.309	1.0	589.692	0.9	2.136	True	89.0	High-Low	n/a	twobytwo	89.0	0.483	blue	8.0	task_switch	magnitude	switch	stim	poldrack-single-stim	s645	0	False
591.358	1.0	592.92	0.9	2.408	True	71.0	Magnitude	switch	twobytwo	71.0	0.662	blue	2.0	cue_switch	magnitude	stay	stim	poldrack-single-stim	s645	0	False
594.677	1.0	596.223	0.9	2.136	False	71.0	Orange-Blue	n/a	twobytwo	89.0	0.646	blue	8.0	task_switch	color	switch	stim	poldrack-single-stim	s645	0	False
597.724	1.0	599.808	0.9	2.0	True	89.0	Magnitude	n/a	twobytwo	89.0	1.184	blue	7.0	task_switch	magnitude	switch	stim	poldrack-single-stim	s645	0	False
599.834	1.0	600.678	0.1	2.0	True	71.0	Orange-Blue	n/a	twobytwo	71.0	0.744	blue	3.0	task_switch	color	switch	stim	poldrack-single-stim	s645	0	False
601.945	1.0	602.76	0.1	2.544	True	71.0	Color	switch	twobytwo	71.0	0.715	blue	7.0	cue_switch	color	stay	stim	poldrack-single-stim	s645	0	False
605.401	1.0	606.855	0.9	2.136	True	71.0	Orange-Blue	switch	twobytwo	71.0	0.554	blue	6.0	cue_switch	color	stay	stim	poldrack-single-stim	s645	0	False
607.648	1.0	608.437	0.1	2.544	True	71.0	Color	switch	twobytwo	71.0	0.689	blue	4.0	cue_switch	color	stay	stim	poldrack-single-stim	s645	0	False
611.104	1.0	612.539	0.9	2.68	True	71.0	Orange-Blue	switch	twobytwo	71.0	0.535	blue	3.0	cue_switch	color	stay	stim	poldrack-single-stim	s645	0	False
614.696	1.0	616.139	0.9	2.0	True	89.0	High-Low	n/a	twobytwo	89.0	0.543	orange	9.0	task_switch	magnitude	switch	stim	poldrack-single-stim	s645	0	False
617.608	1.0	619.02	0.9	2.272	True	71.0	Orange-Blue	n/a	twobytwo	71.0	0.512	blue	8.0	task_switch	color	switch	stim	poldrack-single-stim	s645	0	False
619.99	1.0	621.083	0.1	3.088	True	89.0	High-Low	n/a	twobytwo	89.0	0.993	blue	9.0	task_switch	magnitude	switch	stim	poldrack-single-stim	s645	0	False
623.189	1.0	624.075	0.1	2.0	True	71.0	Magnitude	switch	twobytwo	71.0	0.786	orange	4.0	cue_switch	magnitude	stay	stim	poldrack-single-stim	s645	0	False
626.1	1.0	627.531	0.9	2.136	True	89.0	Magnitude	stay	twobytwo	89.0	0.531	blue	9.0	cue_stay	magnitude	stay	stim	poldrack-single-stim	s645	0	False
628.348	1.0	629.099	0.1	2.136	True	71.0	Color	n/a	twobytwo	71.0	0.651	blue	2.0	task_switch	color	switch	stim	poldrack-single-stim	s645	0	False
630.595	1.0	630.594	0.1	2.0	False	71.0	Color	stay	twobytwo	-1.0	n/a	blue	7.0	cue_stay	color	stay	stim	poldrack-single-stim	s645	0	False
633.506	1.0	634.789	0.9	2.272	True	71.0	Orange-Blue	switch	twobytwo	71.0	0.383	blue	7.0	cue_switch	color	stay	stim	poldrack-single-stim	s645	0	False
635.889	1.0	636.566	0.1	2.0	True	89.0	Orange-Blue	stay	twobytwo	89.0	0.577	orange	2.0	cue_stay	color	stay	stim	poldrack-single-stim	s645	0	False
638.801	1.0	640.114	0.9	2.136	True	89.0	Orange-Blue	stay	twobytwo	89.0	0.413	orange	1.0	cue_stay	color	stay	stim	poldrack-single-stim	s645	0	False
641.045	1.0	642.063	0.1	2.136	False	71.0	High-Low	n/a	twobytwo	89.0	0.918	blue	1.0	task_switch	magnitude	switch	stim	poldrack-single-stim	s645	0	False
643.293	1.0	644.099	0.1	2.544	True	89.0	Color	n/a	twobytwo	89.0	0.706	orange	2.0	task_switch	color	switch	stim	poldrack-single-stim	s645	0	False
645.948	1.0	646.658	0.1	2.0	True	71.0	High-Low	n/a	twobytwo	71.0	0.61	blue	2.0	task_switch	magnitude	switch	stim	poldrack-single-stim	s645	0	False
648.86	1.0	650.422	0.9	2.136	True	89.0	Orange-Blue	n/a	twobytwo	89.0	0.662	orange	2.0	task_switch	color	switch	stim	poldrack-single-stim	s645	0	False
651.905	1.0	653.319	0.9	2.136	True	71.0	Orange-Blue	stay	twobytwo	71.0	0.514	blue	6.0	cue_stay	color	stay	stim	poldrack-single-stim	s645	0	False
654.955	1.0	656.361	0.9	2.136	True	71.0	Color	switch	twobytwo	71.0	0.506	blue	9.0	cue_switch	color	stay	stim	poldrack-single-stim	s645	0	False
658.003	1.0	659.393	0.9	2.0	True	89.0	Orange-Blue	switch	twobytwo	89.0	0.49	orange	6.0	cue_switch	color	stay	stim	poldrack-single-stim	s645	0	False
660.915	1.0	662.39	0.9	2.136	True	71.0	High-Low	n/a	twobytwo	71.0	0.575	orange	1.0	task_switch	magnitude	switch	stim	poldrack-single-stim	s645	0	False
663.963	1.0	666.007	0.9	2.0	True	89.0	Color	n/a	twobytwo	89.0	1.144	orange	8.0	task_switch	color	switch	stim	poldrack-single-stim	s645	0	False
666.871	1.0	668.346	0.9	2.136	True	71.0	Magnitude	n/a	twobytwo	71.0	0.575	blue	4.0	task_switch	magnitude	switch	stim	poldrack-single-stim	s645	0	False
669.117	1.0	669.996	0.1	2.816	True	71.0	High-Low	switch	twobytwo	71.0	0.779	orange	2.0	cue_switch	magnitude	stay	stim	poldrack-single-stim	s645	0	False
672.843	1.0	674.309	0.9	2.136	True	89.0	Orange-Blue	n/a	twobytwo	89.0	0.566	orange	4.0	task_switch	color	switch	stim	poldrack-single-stim	s645	0	False
675.892	1.0	677.444	0.9	2.0	True	89.0	High-Low	n/a	twobytwo	89.0	0.652	orange	7.0	task_switch	magnitude	switch	stim	poldrack-single-stim	s645	0	False
678.001	1.0	678.733	0.1	2.0	True	71.0	Magnitude	switch	twobytwo	71.0	0.632	blue	2.0	cue_switch	magnitude	stay	stim	poldrack-single-stim	s645	0	False
680.111	1.0	680.74	0.1	2.272	True	89.0	Orange-Blue	n/a	twobytwo	89.0	0.529	orange	8.0	task_switch	color	switch	stim	poldrack-single-stim	s645	0	False
682.496	1.0	683.3	0.1	2.0	True	71.0	Color	switch	twobytwo	71.0	0.704	blue	7.0	cue_switch	color	stay	stim	poldrack-single-stim	s645	0	False
684.608	1.0	685.36	0.1	2.0	True	89.0	Magnitude	n/a	twobytwo	89.0	0.652	orange	8.0	task_switch	magnitude	switch	stim	poldrack-single-stim	s645	0	False
687.52	1.0	688.855	0.9	2.0	True	71.0	Color	n/a	twobytwo	71.0	0.435	blue	2.0	task_switch	color	switch	stim	poldrack-single-stim	s645	0	False
690.43	1.0	691.799	0.9	2.408	True	71.0	Color	stay	twobytwo	71.0	0.469	blue	7.0	cue_stay	color	stay	stim	poldrack-single-stim	s645	0	False
