duration	onset	block_duration	movement_onset	planning	condition	exp_stage	experiment_exp_id	key_press	problem_id	response_time	trial_id	trial_type	worker_id	junk
4.574	3.019	4.574	7.593	1	UA_with_intermediate	practice	ward_and_allport	71	0.0	4.574	to_hand	poldrack-single-stim	s645	False
0.1	7.595	1.013	8.608	0	UA_with_intermediate	practice	ward_and_allport	82	0.0	1.013	to_board	poldrack-single-stim	s645	False
0.1	8.609	0.832	9.441	0	UA_with_intermediate	practice	ward_and_allport	71	0.0	0.832	to_hand	poldrack-single-stim	s645	False
0.1	9.442	0.427	9.869	0	UA_with_intermediate	practice	ward_and_allport	89	0.0	0.427	to_board	poldrack-single-stim	s645	False
0.1	9.87	1.333	11.203	0	UA_with_intermediate	practice	ward_and_allport	82	0.0	1.333	to_hand	poldrack-single-stim	s645	False
0.1	11.204	0.384	11.588	0	UA_with_intermediate	practice	ward_and_allport	89	0.0	0.384	to_board	poldrack-single-stim	s645	False
1.0	11.598	2.5	11.597	0	UA_with_intermediate	practice	ward_and_allport	-1	0.0	n/a	feedback	poldrack-single-stim	s645	False
3.81	14.1	3.81	17.91	1	UA_with_intermediate	practice	ward_and_allport	89	1.0	3.81	to_hand	poldrack-single-stim	s645	False
0.1	17.911	0.753	18.664	0	UA_with_intermediate	practice	ward_and_allport	82	1.0	0.753	to_board	poldrack-single-stim	s645	False
0.1	18.666	0.46	19.126	0	UA_with_intermediate	practice	ward_and_allport	71	1.0	0.46	to_hand	poldrack-single-stim	s645	False
0.1	19.127	0.409	19.536	0	UA_with_intermediate	practice	ward_and_allport	89	1.0	0.409	to_board	poldrack-single-stim	s645	False
0.1	19.539	0.777	20.316	0	UA_with_intermediate	practice	ward_and_allport	82	1.0	0.777	to_hand	poldrack-single-stim	s645	False
0.1	20.317	0.345	20.662	0	UA_with_intermediate	practice	ward_and_allport	89	1.0	0.345	to_board	poldrack-single-stim	s645	False
1.0	20.668	2.1	20.667	0	UA_with_intermediate	practice	ward_and_allport	-1	1.0	n/a	feedback	poldrack-single-stim	s645	False
3.983	22.77	3.983	26.753	1	UA_without_intermediate	practice	ward_and_allport	82	2.0	3.983	to_hand	poldrack-single-stim	s645	False
0.1	26.755	0.443	27.198	0	UA_without_intermediate	practice	ward_and_allport	89	2.0	0.443	to_board	poldrack-single-stim	s645	False
0.1	27.2	0.562	27.762	0	UA_without_intermediate	practice	ward_and_allport	71	2.0	0.562	to_hand	poldrack-single-stim	s645	False
0.1	27.762	0.511	28.273	0	UA_without_intermediate	practice	ward_and_allport	89	2.0	0.511	to_board	poldrack-single-stim	s645	False
0.1	28.274	1.005	29.279	0	UA_without_intermediate	practice	ward_and_allport	71	2.0	1.005	to_hand	poldrack-single-stim	s645	False
0.1	29.281	0.394	29.675	0	UA_without_intermediate	practice	ward_and_allport	89	2.0	0.394	to_board	poldrack-single-stim	s645	False
1.0	29.681	2.2	29.68	0	UA_without_intermediate	practice	ward_and_allport	-1	2.0	n/a	feedback	poldrack-single-stim	s645	False
3.064	31.885	3.064	34.949	1	UA_without_intermediate	practice	ward_and_allport	71	3.0	3.064	to_hand	poldrack-single-stim	s645	False
0.1	34.949	0.421	35.37	0	UA_without_intermediate	practice	ward_and_allport	89	3.0	0.421	to_board	poldrack-single-stim	s645	False
0.1	35.372	0.432	35.804	0	UA_without_intermediate	practice	ward_and_allport	82	3.0	0.432	to_hand	poldrack-single-stim	s645	False
0.1	35.805	0.355	36.16	0	UA_without_intermediate	practice	ward_and_allport	89	3.0	0.355	to_board	poldrack-single-stim	s645	False
0.1	36.162	0.379	36.541	0	UA_without_intermediate	practice	ward_and_allport	71	3.0	0.379	to_hand	poldrack-single-stim	s645	False
0.1	36.542	0.351	36.893	0	UA_without_intermediate	practice	ward_and_allport	89	3.0	0.351	to_board	poldrack-single-stim	s645	False
1.0	36.9	2.0	36.899	0	UA_without_intermediate	practice	ward_and_allport	-1	3.0	n/a	feedback	poldrack-single-stim	s645	False
4.895	40.913	4.895	45.808	1	PA_with_intermediate	test	ward_and_allport	82	0.0	4.895	to_hand	poldrack-single-stim	s645	False
0.1	45.809	0.385	46.194	0	PA_with_intermediate	test	ward_and_allport	71	0.0	0.385	to_board	poldrack-single-stim	s645	False
0.1	46.196	1.239	47.435	0	PA_with_intermediate	test	ward_and_allport	82	0.0	1.239	to_hand	poldrack-single-stim	s645	False
0.1	47.437	0.362	47.799	0	PA_with_intermediate	test	ward_and_allport	89	0.0	0.362	to_board	poldrack-single-stim	s645	False
0.1	47.8	0.383	48.183	0	PA_with_intermediate	test	ward_and_allport	71	0.0	0.383	to_hand	poldrack-single-stim	s645	False
0.1	48.184	0.371	48.555	0	PA_with_intermediate	test	ward_and_allport	89	0.0	0.371	to_board	poldrack-single-stim	s645	False
1.0	48.562	4.176	48.561	0	PA_with_intermediate	test	ward_and_allport	-1	0.0	n/a	feedback	poldrack-single-stim	s645	False
4.925	52.741	4.925	57.666	1	PA_with_intermediate	test	ward_and_allport	82	1.0	4.925	to_hand	poldrack-single-stim	s645	False
0.1	57.667	0.426	58.093	0	PA_with_intermediate	test	ward_and_allport	89	1.0	0.426	to_board	poldrack-single-stim	s645	False
0.1	58.095	2.128	60.223	0	PA_with_intermediate	test	ward_and_allport	82	1.0	2.128	to_hand	poldrack-single-stim	s645	False
0.1	60.224	0.561	60.785	0	PA_with_intermediate	test	ward_and_allport	71	1.0	0.561	to_board	poldrack-single-stim	s645	False
0.1	60.788	0.645	61.433	0	PA_with_intermediate	test	ward_and_allport	89	1.0	0.645	to_hand	poldrack-single-stim	s645	False
0.1	61.435	0.353	61.788	0	PA_with_intermediate	test	ward_and_allport	71	1.0	0.353	to_board	poldrack-single-stim	s645	False
1.0	61.794	3.36	61.793	0	PA_with_intermediate	test	ward_and_allport	-1	1.0	n/a	feedback	poldrack-single-stim	s645	False
3.661	65.158	3.661	68.819	1	PA_with_intermediate	test	ward_and_allport	71	2.0	3.661	to_hand	poldrack-single-stim	s645	False
0.1	68.82	0.439	69.259	0	PA_with_intermediate	test	ward_and_allport	89	2.0	0.439	to_board	poldrack-single-stim	s645	False
0.1	69.261	0.422	69.683	0	PA_with_intermediate	test	ward_and_allport	71	2.0	0.422	to_hand	poldrack-single-stim	s645	False
0.1	69.684	0.404	70.088	0	PA_with_intermediate	test	ward_and_allport	82	2.0	0.404	to_board	poldrack-single-stim	s645	False
0.1	70.091	0.506	70.597	0	PA_with_intermediate	test	ward_and_allport	89	2.0	0.506	to_hand	poldrack-single-stim	s645	False
0.1	70.598	0.173	70.771	0	PA_with_intermediate	test	ward_and_allport	89	2.0	0.173	to_board	poldrack-single-stim	s645	False
0.1	70.774	0.232	71.006	0	PA_with_intermediate	test	ward_and_allport	71	2.0	0.232	to_hand	poldrack-single-stim	s645	False
0.1	71.007	1.498	72.505	0	PA_with_intermediate	test	ward_and_allport	71	2.0	1.498	to_board	poldrack-single-stim	s645	False
0.1	72.507	0.796	73.303	0	PA_with_intermediate	test	ward_and_allport	89	2.0	0.796	to_hand	poldrack-single-stim	s645	False
0.1	73.304	0.427	73.731	0	PA_with_intermediate	test	ward_and_allport	71	2.0	0.427	to_board	poldrack-single-stim	s645	False
1.0	73.737	2.0	73.736	0	PA_with_intermediate	test	ward_and_allport	-1	2.0	n/a	feedback	poldrack-single-stim	s645	False
4.294	75.741	4.294	80.035	1	PA_without_intermediate	test	ward_and_allport	82	3.0	4.294	to_hand	poldrack-single-stim	s645	False
0.1	80.037	0.431	80.468	0	PA_without_intermediate	test	ward_and_allport	89	3.0	0.431	to_board	poldrack-single-stim	s645	False
0.1	80.471	2.713	83.184	0	PA_without_intermediate	test	ward_and_allport	82	3.0	2.713	to_hand	poldrack-single-stim	s645	False
0.1	83.186	0.396	83.582	0	PA_without_intermediate	test	ward_and_allport	89	3.0	0.396	to_board	poldrack-single-stim	s645	False
0.1	83.586	1.032	84.618	0	PA_without_intermediate	test	ward_and_allport	82	3.0	1.032	to_hand	poldrack-single-stim	s645	False
0.1	84.62	0.334	84.954	0	PA_without_intermediate	test	ward_and_allport	71	3.0	0.334	to_board	poldrack-single-stim	s645	False
1.0	84.96	2.408	84.959	0	PA_without_intermediate	test	ward_and_allport	-1	3.0	n/a	feedback	poldrack-single-stim	s645	False
4.142	87.372	4.142	91.514	1	PA_with_intermediate	test	ward_and_allport	71	4.0	4.142	to_hand	poldrack-single-stim	s645	False
0.1	91.515	0.426	91.941	0	PA_with_intermediate	test	ward_and_allport	89	4.0	0.426	to_board	poldrack-single-stim	s645	False
0.1	91.944	0.577	92.521	0	PA_with_intermediate	test	ward_and_allport	71	4.0	0.577	to_hand	poldrack-single-stim	s645	False
0.1	92.522	0.459	92.981	0	PA_with_intermediate	test	ward_and_allport	82	4.0	0.459	to_board	poldrack-single-stim	s645	False
0.1	92.984	0.501	93.485	0	PA_with_intermediate	test	ward_and_allport	89	4.0	0.501	to_hand	poldrack-single-stim	s645	False
0.1	93.486	0.208	93.694	0	PA_with_intermediate	test	ward_and_allport	89	4.0	0.208	to_board	poldrack-single-stim	s645	False
0.1	93.697	0.242	93.939	0	PA_with_intermediate	test	ward_and_allport	82	4.0	0.242	to_hand	poldrack-single-stim	s645	False
0.1	93.94	1.334	95.274	0	PA_with_intermediate	test	ward_and_allport	82	4.0	1.334	to_board	poldrack-single-stim	s645	False
0.1	95.277	0.653	95.93	0	PA_with_intermediate	test	ward_and_allport	89	4.0	0.653	to_hand	poldrack-single-stim	s645	False
0.1	95.931	0.95	96.881	0	PA_with_intermediate	test	ward_and_allport	82	4.0	0.95	to_board	poldrack-single-stim	s645	False
1.0	96.888	2.816	96.887	0	PA_with_intermediate	test	ward_and_allport	-1	4.0	n/a	feedback	poldrack-single-stim	s645	False
2.437	99.708	2.437	102.145	1	PA_without_intermediate	test	ward_and_allport	89	5.0	2.437	to_hand	poldrack-single-stim	s645	False
0.1	102.147	0.174	102.321	0	PA_without_intermediate	test	ward_and_allport	89	5.0	0.174	to_board	poldrack-single-stim	s645	False
0.1	102.324	1.359	103.683	0	PA_without_intermediate	test	ward_and_allport	89	5.0	1.359	to_hand	poldrack-single-stim	s645	False
0.1	103.684	1.721	105.405	0	PA_without_intermediate	test	ward_and_allport	82	5.0	1.721	to_board	poldrack-single-stim	s645	False
0.1	105.408	0.89	106.298	0	PA_without_intermediate	test	ward_and_allport	89	5.0	0.89	to_hand	poldrack-single-stim	s645	False
0.1	106.299	0.849	107.148	0	PA_without_intermediate	test	ward_and_allport	82	5.0	0.849	to_board	poldrack-single-stim	s645	False
0.1	107.15	0.887	108.037	0	PA_without_intermediate	test	ward_and_allport	89	5.0	0.887	to_hand	poldrack-single-stim	s645	False
0.1	108.039	0.523	108.562	0	PA_without_intermediate	test	ward_and_allport	71	5.0	0.523	to_board	poldrack-single-stim	s645	False
1.0	108.569	3.088	108.568	0	PA_without_intermediate	test	ward_and_allport	-1	5.0	n/a	feedback	poldrack-single-stim	s645	False
3.081	111.662	3.081	114.743	1	PA_without_intermediate	test	ward_and_allport	82	6.0	3.081	to_hand	poldrack-single-stim	s645	False
0.1	114.745	0.754	115.499	0	PA_without_intermediate	test	ward_and_allport	71	6.0	0.754	to_board	poldrack-single-stim	s645	False
0.1	115.503	2.288	117.791	0	PA_without_intermediate	test	ward_and_allport	82	6.0	2.288	to_hand	poldrack-single-stim	s645	False
0.1	117.793	0.65	118.443	0	PA_without_intermediate	test	ward_and_allport	71	6.0	0.65	to_board	poldrack-single-stim	s645	False
0.1	118.447	0.757	119.204	0	PA_without_intermediate	test	ward_and_allport	82	6.0	0.757	to_hand	poldrack-single-stim	s645	False
0.1	119.206	0.486	119.692	0	PA_without_intermediate	test	ward_and_allport	89	6.0	0.486	to_board	poldrack-single-stim	s645	False
1.0	119.697	2.136	119.696	0	PA_without_intermediate	test	ward_and_allport	-1	6.0	n/a	feedback	poldrack-single-stim	s645	False
2.973	121.837	2.973	124.81	1	PA_without_intermediate	test	ward_and_allport	71	7.0	2.973	to_hand	poldrack-single-stim	s645	False
0.1	124.811	0.643	125.454	0	PA_without_intermediate	test	ward_and_allport	89	7.0	0.643	to_board	poldrack-single-stim	s645	False
0.1	125.458	0.769	126.227	0	PA_without_intermediate	test	ward_and_allport	71	7.0	0.769	to_hand	poldrack-single-stim	s645	False
0.1	126.227	0.5	126.727	0	PA_without_intermediate	test	ward_and_allport	82	7.0	0.5	to_board	poldrack-single-stim	s645	False
0.1	126.732	1.121	127.853	0	PA_without_intermediate	test	ward_and_allport	71	7.0	1.121	to_hand	poldrack-single-stim	s645	False
0.1	127.854	0.498	128.352	0	PA_without_intermediate	test	ward_and_allport	89	7.0	0.498	to_board	poldrack-single-stim	s645	False
1.0	128.361	7.168	128.36	0	PA_without_intermediate	test	ward_and_allport	-1	7.0	n/a	feedback	poldrack-single-stim	s645	False
2.646	135.534	2.646	138.18	1	PA_without_intermediate	test	ward_and_allport	71	8.0	2.646	to_hand	poldrack-single-stim	s645	False
0.1	138.18	0.536	138.716	0	PA_without_intermediate	test	ward_and_allport	89	8.0	0.536	to_board	poldrack-single-stim	s645	False
0.1	138.721	0.966	139.687	0	PA_without_intermediate	test	ward_and_allport	71	8.0	0.966	to_hand	poldrack-single-stim	s645	False
0.1	139.688	0.639	140.327	0	PA_without_intermediate	test	ward_and_allport	89	8.0	0.639	to_board	poldrack-single-stim	s645	False
0.1	140.331	0.548	140.879	0	PA_without_intermediate	test	ward_and_allport	71	8.0	0.548	to_hand	poldrack-single-stim	s645	False
0.1	140.88	0.533	141.413	0	PA_without_intermediate	test	ward_and_allport	82	8.0	0.533	to_board	poldrack-single-stim	s645	False
1.0	141.421	2.816	141.42	0	PA_without_intermediate	test	ward_and_allport	-1	8.0	n/a	feedback	poldrack-single-stim	s645	False
3.448	144.241	3.448	147.689	1	PA_with_intermediate	test	ward_and_allport	89	9.0	3.448	to_hand	poldrack-single-stim	s645	False
0.1	147.69	0.447	148.137	0	PA_with_intermediate	test	ward_and_allport	71	9.0	0.447	to_board	poldrack-single-stim	s645	False
0.1	148.141	0.626	148.767	0	PA_with_intermediate	test	ward_and_allport	89	9.0	0.626	to_hand	poldrack-single-stim	s645	False
0.1	148.768	0.682	149.45	0	PA_with_intermediate	test	ward_and_allport	82	9.0	0.682	to_board	poldrack-single-stim	s645	False
0.1	149.454	1.145	150.599	0	PA_with_intermediate	test	ward_and_allport	71	9.0	1.145	to_hand	poldrack-single-stim	s645	False
0.1	150.6	0.48	151.08	0	PA_with_intermediate	test	ward_and_allport	89	9.0	0.48	to_board	poldrack-single-stim	s645	False
1.0	151.089	2.952	151.088	0	PA_with_intermediate	test	ward_and_allport	-1	9.0	n/a	feedback	poldrack-single-stim	s645	False
2.132	154.044	2.132	156.176	1	PA_with_intermediate	test	ward_and_allport	71	10.0	2.132	to_hand	poldrack-single-stim	s645	False
0.1	156.179	0.571	156.75	0	PA_with_intermediate	test	ward_and_allport	82	10.0	0.571	to_board	poldrack-single-stim	s645	False
0.1	156.754	0.592	157.346	0	PA_with_intermediate	test	ward_and_allport	71	10.0	0.592	to_hand	poldrack-single-stim	s645	False
0.1	157.348	0.654	158.002	0	PA_with_intermediate	test	ward_and_allport	89	10.0	0.654	to_board	poldrack-single-stim	s645	False
0.1	158.006	0.758	158.764	0	PA_with_intermediate	test	ward_and_allport	82	10.0	0.758	to_hand	poldrack-single-stim	s645	False
0.1	158.766	1.159	159.925	0	PA_with_intermediate	test	ward_and_allport	89	10.0	1.159	to_board	poldrack-single-stim	s645	False
1.0	159.933	2.136	159.932	0	PA_with_intermediate	test	ward_and_allport	-1	10.0	n/a	feedback	poldrack-single-stim	s645	False
3.16	162.073	3.16	165.233	1	PA_without_intermediate	test	ward_and_allport	82	11.0	3.16	to_hand	poldrack-single-stim	s645	False
0.1	165.235	0.616	165.851	0	PA_without_intermediate	test	ward_and_allport	89	11.0	0.616	to_board	poldrack-single-stim	s645	False
0.1	165.855	2.322	168.177	0	PA_without_intermediate	test	ward_and_allport	82	11.0	2.322	to_hand	poldrack-single-stim	s645	False
0.1	168.178	0.528	168.706	0	PA_without_intermediate	test	ward_and_allport	71	11.0	0.528	to_board	poldrack-single-stim	s645	False
0.1	168.71	1.909	170.619	0	PA_without_intermediate	test	ward_and_allport	82	11.0	1.909	to_hand	poldrack-single-stim	s645	False
0.1	170.62	0.346	170.966	0	PA_without_intermediate	test	ward_and_allport	89	11.0	0.346	to_board	poldrack-single-stim	s645	False
1.0	170.973	2.68	170.972	0	PA_without_intermediate	test	ward_and_allport	-1	11.0	n/a	feedback	poldrack-single-stim	s645	False
2.696	173.658	2.696	176.354	1	PA_without_intermediate	test	ward_and_allport	71	12.0	2.696	to_hand	poldrack-single-stim	s645	False
0.1	176.355	0.608	176.963	0	PA_without_intermediate	test	ward_and_allport	82	12.0	0.608	to_board	poldrack-single-stim	s645	False
0.1	176.967	0.598	177.565	0	PA_without_intermediate	test	ward_and_allport	71	12.0	0.598	to_hand	poldrack-single-stim	s645	False
0.1	177.567	0.895	178.462	0	PA_without_intermediate	test	ward_and_allport	82	12.0	0.895	to_board	poldrack-single-stim	s645	False
0.1	178.466	0.623	179.089	0	PA_without_intermediate	test	ward_and_allport	71	12.0	0.623	to_hand	poldrack-single-stim	s645	False
0.1	179.091	0.533	179.624	0	PA_without_intermediate	test	ward_and_allport	89	12.0	0.533	to_board	poldrack-single-stim	s645	False
1.0	179.633	3.088	179.632	0	PA_without_intermediate	test	ward_and_allport	-1	12.0	n/a	feedback	poldrack-single-stim	s645	False
2.867	182.726	2.867	185.593	1	PA_with_intermediate	test	ward_and_allport	71	13.0	2.867	to_hand	poldrack-single-stim	s645	False
0.1	185.594	0.521	186.115	0	PA_with_intermediate	test	ward_and_allport	89	13.0	0.521	to_board	poldrack-single-stim	s645	False
0.1	186.119	0.555	186.674	0	PA_with_intermediate	test	ward_and_allport	71	13.0	0.555	to_hand	poldrack-single-stim	s645	False
0.1	186.676	0.638	187.314	0	PA_with_intermediate	test	ward_and_allport	82	13.0	0.638	to_board	poldrack-single-stim	s645	False
0.1	187.319	0.522	187.841	0	PA_with_intermediate	test	ward_and_allport	89	13.0	0.522	to_hand	poldrack-single-stim	s645	False
0.1	187.842	0.423	188.265	0	PA_with_intermediate	test	ward_and_allport	71	13.0	0.423	to_board	poldrack-single-stim	s645	False
1.0	188.272	2.0	188.271	0	PA_with_intermediate	test	ward_and_allport	-1	13.0	n/a	feedback	poldrack-single-stim	s645	False
1.648	190.279	1.648	191.927	1	PA_without_intermediate	test	ward_and_allport	71	14.0	1.648	to_hand	poldrack-single-stim	s645	False
0.1	191.928	0.718	192.646	0	PA_without_intermediate	test	ward_and_allport	82	14.0	0.718	to_board	poldrack-single-stim	s645	False
0.1	192.653	0.608	193.261	0	PA_without_intermediate	test	ward_and_allport	71	14.0	0.608	to_hand	poldrack-single-stim	s645	False
0.1	193.263	0.607	193.87	0	PA_without_intermediate	test	ward_and_allport	89	14.0	0.607	to_board	poldrack-single-stim	s645	False
0.1	193.875	0.589	194.464	0	PA_without_intermediate	test	ward_and_allport	71	14.0	0.589	to_hand	poldrack-single-stim	s645	False
0.1	194.466	0.522	194.988	0	PA_without_intermediate	test	ward_and_allport	82	14.0	0.522	to_board	poldrack-single-stim	s645	False
1.0	194.998	2.0	194.997	0	PA_without_intermediate	test	ward_and_allport	-1	14.0	n/a	feedback	poldrack-single-stim	s645	False
3.834	202.008	3.834	205.842	1	PA_without_intermediate	test	ward_and_allport	89	15.0	3.834	to_hand	poldrack-single-stim	s645	False
0.1	205.843	0.535	206.378	0	PA_without_intermediate	test	ward_and_allport	82	15.0	0.535	to_board	poldrack-single-stim	s645	False
0.1	206.383	0.568	206.951	0	PA_without_intermediate	test	ward_and_allport	89	15.0	0.568	to_hand	poldrack-single-stim	s645	False
0.1	206.952	0.557	207.509	0	PA_without_intermediate	test	ward_and_allport	71	15.0	0.557	to_board	poldrack-single-stim	s645	False
0.1	207.513	0.586	208.099	0	PA_without_intermediate	test	ward_and_allport	89	15.0	0.586	to_hand	poldrack-single-stim	s645	False
0.1	208.101	0.604	208.705	0	PA_without_intermediate	test	ward_and_allport	82	15.0	0.604	to_board	poldrack-single-stim	s645	False
1.0	208.713	2.0	208.712	0	PA_without_intermediate	test	ward_and_allport	-1	15.0	n/a	feedback	poldrack-single-stim	s645	False
2.126	210.719	2.126	212.845	1	PA_with_intermediate	test	ward_and_allport	71	16.0	2.126	to_hand	poldrack-single-stim	s645	False
0.1	212.845	0.575	213.42	0	PA_with_intermediate	test	ward_and_allport	82	16.0	0.575	to_board	poldrack-single-stim	s645	False
0.1	213.425	0.5	213.925	0	PA_with_intermediate	test	ward_and_allport	71	16.0	0.5	to_hand	poldrack-single-stim	s645	False
0.1	213.926	0.475	214.401	0	PA_with_intermediate	test	ward_and_allport	89	16.0	0.475	to_board	poldrack-single-stim	s645	False
0.1	214.406	0.611	215.017	0	PA_with_intermediate	test	ward_and_allport	82	16.0	0.611	to_hand	poldrack-single-stim	s645	False
0.1	215.018	0.514	215.532	0	PA_with_intermediate	test	ward_and_allport	71	16.0	0.514	to_board	poldrack-single-stim	s645	False
1.0	215.541	2.544	215.54	0	PA_with_intermediate	test	ward_and_allport	-1	16.0	n/a	feedback	poldrack-single-stim	s645	False
2.527	218.091	2.527	220.618	1	PA_without_intermediate	test	ward_and_allport	89	17.0	2.527	to_hand	poldrack-single-stim	s645	False
0.1	220.618	0.615	221.233	0	PA_without_intermediate	test	ward_and_allport	82	17.0	0.615	to_board	poldrack-single-stim	s645	False
0.1	221.238	0.54	221.778	0	PA_without_intermediate	test	ward_and_allport	89	17.0	0.54	to_hand	poldrack-single-stim	s645	False
0.1	221.779	0.676	222.455	0	PA_without_intermediate	test	ward_and_allport	82	17.0	0.676	to_board	poldrack-single-stim	s645	False
0.1	222.46	0.465	222.925	0	PA_without_intermediate	test	ward_and_allport	89	17.0	0.465	to_hand	poldrack-single-stim	s645	False
0.1	222.927	0.424	223.351	0	PA_without_intermediate	test	ward_and_allport	71	17.0	0.424	to_board	poldrack-single-stim	s645	False
1.0	223.359	2.272	223.358	0	PA_without_intermediate	test	ward_and_allport	-1	17.0	n/a	feedback	poldrack-single-stim	s645	False
3.532	225.636	3.532	229.168	1	PA_with_intermediate	test	ward_and_allport	82	18.0	3.532	to_hand	poldrack-single-stim	s645	False
0.1	229.169	0.527	229.696	0	PA_with_intermediate	test	ward_and_allport	89	18.0	0.527	to_board	poldrack-single-stim	s645	False
0.1	229.701	0.518	230.219	0	PA_with_intermediate	test	ward_and_allport	82	18.0	0.518	to_hand	poldrack-single-stim	s645	False
0.1	230.221	0.529	230.75	0	PA_with_intermediate	test	ward_and_allport	71	18.0	0.529	to_board	poldrack-single-stim	s645	False
0.1	230.755	0.538	231.293	0	PA_with_intermediate	test	ward_and_allport	89	18.0	0.538	to_hand	poldrack-single-stim	s645	False
0.1	231.295	0.535	231.83	0	PA_with_intermediate	test	ward_and_allport	82	18.0	0.535	to_board	poldrack-single-stim	s645	False
1.0	231.84	4.04	231.839	0	PA_with_intermediate	test	ward_and_allport	-1	18.0	n/a	feedback	poldrack-single-stim	s645	False
2.109	235.885	2.109	237.994	1	PA_with_intermediate	test	ward_and_allport	71	19.0	2.109	to_hand	poldrack-single-stim	s645	False
0.1	237.996	0.527	238.523	0	PA_with_intermediate	test	ward_and_allport	82	19.0	0.527	to_board	poldrack-single-stim	s645	False
0.1	238.528	0.465	238.993	0	PA_with_intermediate	test	ward_and_allport	71	19.0	0.465	to_hand	poldrack-single-stim	s645	False
0.1	238.993	0.487	239.48	0	PA_with_intermediate	test	ward_and_allport	89	19.0	0.487	to_board	poldrack-single-stim	s645	False
0.1	239.487	0.535	240.022	0	PA_with_intermediate	test	ward_and_allport	82	19.0	0.535	to_hand	poldrack-single-stim	s645	False
0.1	240.023	0.407	240.43	0	PA_with_intermediate	test	ward_and_allport	71	19.0	0.407	to_board	poldrack-single-stim	s645	False
1.0	240.44	2.272	240.439	0	PA_with_intermediate	test	ward_and_allport	-1	19.0	n/a	feedback	poldrack-single-stim	s645	False
4.257	242.719	4.257	246.976	1	PA_with_intermediate	test	ward_and_allport	89	20.0	4.257	to_hand	poldrack-single-stim	s645	False
0.1	246.976	0.562	247.538	0	PA_with_intermediate	test	ward_and_allport	71	20.0	0.562	to_board	poldrack-single-stim	s645	False
0.1	247.545	0.584	248.129	0	PA_with_intermediate	test	ward_and_allport	89	20.0	0.584	to_hand	poldrack-single-stim	s645	False
0.1	248.13	0.708	248.838	0	PA_with_intermediate	test	ward_and_allport	82	20.0	0.708	to_board	poldrack-single-stim	s645	False
0.1	248.844	1.168	250.012	0	PA_with_intermediate	test	ward_and_allport	71	20.0	1.168	to_hand	poldrack-single-stim	s645	False
0.1	250.013	0.439	250.452	0	PA_with_intermediate	test	ward_and_allport	82	20.0	0.439	to_board	poldrack-single-stim	s645	False
1.0	250.463	2.136	250.462	0	PA_with_intermediate	test	ward_and_allport	-1	20.0	n/a	feedback	poldrack-single-stim	s645	False
2.833	252.606	2.833	255.439	1	PA_with_intermediate	test	ward_and_allport	71	21.0	2.833	to_hand	poldrack-single-stim	s645	False
0.1	255.44	0.587	256.027	0	PA_with_intermediate	test	ward_and_allport	82	21.0	0.587	to_board	poldrack-single-stim	s645	False
0.1	256.033	0.791	256.824	0	PA_with_intermediate	test	ward_and_allport	71	21.0	0.791	to_hand	poldrack-single-stim	s645	False
0.1	256.826	0.519	257.345	0	PA_with_intermediate	test	ward_and_allport	89	21.0	0.519	to_board	poldrack-single-stim	s645	False
0.1	257.352	2.554	259.906	0	PA_with_intermediate	test	ward_and_allport	82	21.0	2.554	to_hand	poldrack-single-stim	s645	False
0.1	259.907	0.356	260.263	0	PA_with_intermediate	test	ward_and_allport	89	21.0	0.356	to_board	poldrack-single-stim	s645	False
1.0	260.273	2.0	260.272	0	PA_with_intermediate	test	ward_and_allport	-1	21.0	n/a	feedback	poldrack-single-stim	s645	False
3.544	262.281	3.544	265.825	1	PA_with_intermediate	test	ward_and_allport	89	22.0	3.544	to_hand	poldrack-single-stim	s645	False
0.1	265.826	0.459	266.285	0	PA_with_intermediate	test	ward_and_allport	71	22.0	0.459	to_board	poldrack-single-stim	s645	False
0.1	266.292	0.55	266.842	0	PA_with_intermediate	test	ward_and_allport	89	22.0	0.55	to_hand	poldrack-single-stim	s645	False
0.1	266.844	0.557	267.401	0	PA_with_intermediate	test	ward_and_allport	82	22.0	0.557	to_board	poldrack-single-stim	s645	False
0.1	267.407	0.44	267.847	0	PA_with_intermediate	test	ward_and_allport	71	22.0	0.44	to_hand	poldrack-single-stim	s645	False
0.1	267.848	0.401	268.249	0	PA_with_intermediate	test	ward_and_allport	89	22.0	0.401	to_board	poldrack-single-stim	s645	False
1.0	268.26	2.0	268.259	0	PA_with_intermediate	test	ward_and_allport	-1	22.0	n/a	feedback	poldrack-single-stim	s645	False
3.171	270.267	3.171	273.438	1	PA_without_intermediate	test	ward_and_allport	89	23.0	3.171	to_hand	poldrack-single-stim	s645	False
0.1	273.439	0.47	273.909	0	PA_without_intermediate	test	ward_and_allport	71	23.0	0.47	to_board	poldrack-single-stim	s645	False
0.1	273.916	0.601	274.517	0	PA_without_intermediate	test	ward_and_allport	89	23.0	0.601	to_hand	poldrack-single-stim	s645	False
0.1	274.518	0.467	274.985	0	PA_without_intermediate	test	ward_and_allport	71	23.0	0.467	to_board	poldrack-single-stim	s645	False
0.1	274.992	0.394	275.386	0	PA_without_intermediate	test	ward_and_allport	89	23.0	0.394	to_hand	poldrack-single-stim	s645	False
0.1	275.386	0.42	275.806	0	PA_without_intermediate	test	ward_and_allport	82	23.0	0.42	to_board	poldrack-single-stim	s645	False
1.0	275.817	2.408	275.816	0	PA_without_intermediate	test	ward_and_allport	-1	23.0	n/a	feedback	poldrack-single-stim	s645	False
4.419	278.232	4.419	282.651	1	PA_with_intermediate	test	ward_and_allport	82	24.0	4.419	to_hand	poldrack-single-stim	s645	False
0.1	282.652	0.464	283.116	0	PA_with_intermediate	test	ward_and_allport	71	24.0	0.464	to_board	poldrack-single-stim	s645	False
0.1	283.123	0.603	283.726	0	PA_with_intermediate	test	ward_and_allport	82	24.0	0.603	to_hand	poldrack-single-stim	s645	False
0.1	283.726	0.519	284.245	0	PA_with_intermediate	test	ward_and_allport	89	24.0	0.519	to_board	poldrack-single-stim	s645	False
0.1	284.252	1.174	285.426	0	PA_with_intermediate	test	ward_and_allport	71	24.0	1.174	to_hand	poldrack-single-stim	s645	False
0.1	285.427	0.405	285.832	0	PA_with_intermediate	test	ward_and_allport	82	24.0	0.405	to_board	poldrack-single-stim	s645	False
1.0	285.843	3.768	285.842	0	PA_with_intermediate	test	ward_and_allport	-1	24.0	n/a	feedback	poldrack-single-stim	s645	False
3.282	289.618	3.282	292.9	1	PA_with_intermediate	test	ward_and_allport	89	25.0	3.282	to_hand	poldrack-single-stim	s645	False
0.1	292.901	0.479	293.38	0	PA_with_intermediate	test	ward_and_allport	71	25.0	0.479	to_board	poldrack-single-stim	s645	False
0.1	293.386	0.508	293.894	0	PA_with_intermediate	test	ward_and_allport	89	25.0	0.508	to_hand	poldrack-single-stim	s645	False
0.1	293.896	0.853	294.749	0	PA_with_intermediate	test	ward_and_allport	82	25.0	0.853	to_board	poldrack-single-stim	s645	False
0.1	294.756	0.463	295.219	0	PA_with_intermediate	test	ward_and_allport	71	25.0	0.463	to_hand	poldrack-single-stim	s645	False
0.1	295.22	0.396	295.616	0	PA_with_intermediate	test	ward_and_allport	82	25.0	0.396	to_board	poldrack-single-stim	s645	False
1.0	295.628	2.68	295.627	0	PA_with_intermediate	test	ward_and_allport	-1	25.0	n/a	feedback	poldrack-single-stim	s645	False
2.81	298.316	2.81	301.126	1	PA_without_intermediate	test	ward_and_allport	82	26.0	2.81	to_hand	poldrack-single-stim	s645	False
0.1	301.127	0.509	301.636	0	PA_without_intermediate	test	ward_and_allport	89	26.0	0.509	to_board	poldrack-single-stim	s645	False
0.1	301.643	1.41	303.053	0	PA_without_intermediate	test	ward_and_allport	82	26.0	1.41	to_hand	poldrack-single-stim	s645	False
0.1	303.054	0.488	303.542	0	PA_without_intermediate	test	ward_and_allport	89	26.0	0.488	to_board	poldrack-single-stim	s645	False
0.1	303.549	0.786	304.335	0	PA_without_intermediate	test	ward_and_allport	82	26.0	0.786	to_hand	poldrack-single-stim	s645	False
0.1	304.336	0.34	304.676	0	PA_without_intermediate	test	ward_and_allport	71	26.0	0.34	to_board	poldrack-single-stim	s645	False
1.0	304.688	3.224	304.687	0	PA_without_intermediate	test	ward_and_allport	-1	26.0	n/a	feedback	poldrack-single-stim	s645	False
1.896	307.92	1.896	309.816	1	PA_without_intermediate	test	ward_and_allport	71	27.0	1.896	to_hand	poldrack-single-stim	s645	False
0.1	309.818	0.709	310.527	0	PA_without_intermediate	test	ward_and_allport	82	27.0	0.709	to_board	poldrack-single-stim	s645	False
0.1	310.534	1.006	311.54	0	PA_without_intermediate	test	ward_and_allport	71	27.0	1.006	to_hand	poldrack-single-stim	s645	False
0.1	311.542	0.359	311.901	0	PA_without_intermediate	test	ward_and_allport	89	27.0	0.359	to_board	poldrack-single-stim	s645	False
0.1	311.907	0.182	312.089	0	PA_without_intermediate	test	ward_and_allport	89	27.0	0.182	to_hand	poldrack-single-stim	s645	False
0.1	312.09	0.913	313.003	0	PA_without_intermediate	test	ward_and_allport	89	27.0	0.913	to_board	poldrack-single-stim	s645	False
0.1	313.01	0.163	313.173	0	PA_without_intermediate	test	ward_and_allport	89	27.0	0.163	to_hand	poldrack-single-stim	s645	False
0.1	313.174	0.572	313.746	0	PA_without_intermediate	test	ward_and_allport	89	27.0	0.572	to_board	poldrack-single-stim	s645	False
0.1	313.753	1.725	315.478	0	PA_without_intermediate	test	ward_and_allport	89	27.0	1.725	to_hand	poldrack-single-stim	s645	False
0.1	315.48	0.566	316.046	0	PA_without_intermediate	test	ward_and_allport	89	27.0	0.566	to_board	poldrack-single-stim	s645	False
0.1	316.054	0.548	316.602	0	PA_without_intermediate	test	ward_and_allport	71	27.0	0.548	to_hand	poldrack-single-stim	s645	False
0.1	316.602	0.394	316.996	0	PA_without_intermediate	test	ward_and_allport	82	27.0	0.394	to_board	poldrack-single-stim	s645	False
1.0	317.007	3.36	317.006	0	PA_without_intermediate	test	ward_and_allport	-1	27.0	n/a	feedback	poldrack-single-stim	s645	False
1.76	320.374	1.76	322.134	1	PA_without_intermediate	test	ward_and_allport	82	28.0	1.76	to_hand	poldrack-single-stim	s645	False
0.1	322.135	0.471	322.606	0	PA_without_intermediate	test	ward_and_allport	71	28.0	0.471	to_board	poldrack-single-stim	s645	False
0.1	322.613	0.692	323.305	0	PA_without_intermediate	test	ward_and_allport	82	28.0	0.692	to_hand	poldrack-single-stim	s645	False
0.1	323.306	0.639	323.945	0	PA_without_intermediate	test	ward_and_allport	71	28.0	0.639	to_board	poldrack-single-stim	s645	False
0.1	323.953	1.091	325.044	0	PA_without_intermediate	test	ward_and_allport	82	28.0	1.091	to_hand	poldrack-single-stim	s645	False
0.1	325.046	0.387	325.433	0	PA_without_intermediate	test	ward_and_allport	89	28.0	0.387	to_board	poldrack-single-stim	s645	False
1.0	325.445	2.0	325.444	0	PA_without_intermediate	test	ward_and_allport	-1	28.0	n/a	feedback	poldrack-single-stim	s645	False
2.017	327.453	2.017	329.47	1	PA_without_intermediate	test	ward_and_allport	89	29.0	2.017	to_hand	poldrack-single-stim	s645	False
0.1	329.472	0.854	330.326	0	PA_without_intermediate	test	ward_and_allport	71	29.0	0.854	to_board	poldrack-single-stim	s645	False
0.1	330.334	0.43	330.764	0	PA_without_intermediate	test	ward_and_allport	89	29.0	0.43	to_hand	poldrack-single-stim	s645	False
0.1	330.765	0.494	331.259	0	PA_without_intermediate	test	ward_and_allport	71	29.0	0.494	to_board	poldrack-single-stim	s645	False
0.1	331.267	0.481	331.748	0	PA_without_intermediate	test	ward_and_allport	89	29.0	0.481	to_hand	poldrack-single-stim	s645	False
0.1	331.749	0.648	332.397	0	PA_without_intermediate	test	ward_and_allport	82	29.0	0.648	to_board	poldrack-single-stim	s645	False
1.0	332.409	2.408	332.408	0	PA_without_intermediate	test	ward_and_allport	-1	29.0	n/a	feedback	poldrack-single-stim	s645	False
2.005	339.832	2.005	341.837	1	PA_with_intermediate	test	ward_and_allport	89	30.0	2.005	to_hand	poldrack-single-stim	s645	False
0.1	341.838	0.542	342.38	0	PA_with_intermediate	test	ward_and_allport	82	30.0	0.542	to_board	poldrack-single-stim	s645	False
0.1	342.388	0.51	342.898	0	PA_with_intermediate	test	ward_and_allport	89	30.0	0.51	to_hand	poldrack-single-stim	s645	False
0.1	342.898	0.512	343.41	0	PA_with_intermediate	test	ward_and_allport	71	30.0	0.512	to_board	poldrack-single-stim	s645	False
0.1	343.418	0.566	343.984	0	PA_with_intermediate	test	ward_and_allport	82	30.0	0.566	to_hand	poldrack-single-stim	s645	False
0.1	343.985	0.426	344.411	0	PA_with_intermediate	test	ward_and_allport	71	30.0	0.426	to_board	poldrack-single-stim	s645	False
1.0	344.426	2.136	344.425	0	PA_with_intermediate	test	ward_and_allport	-1	30.0	n/a	feedback	poldrack-single-stim	s645	False
2.025	346.572	2.025	348.597	1	PA_without_intermediate	test	ward_and_allport	82	31.0	2.025	to_hand	poldrack-single-stim	s645	False
0.1	348.598	0.541	349.139	0	PA_without_intermediate	test	ward_and_allport	71	31.0	0.541	to_board	poldrack-single-stim	s645	False
0.1	349.148	1.212	350.36	0	PA_without_intermediate	test	ward_and_allport	82	31.0	1.212	to_hand	poldrack-single-stim	s645	False
0.1	350.361	0.459	350.82	0	PA_without_intermediate	test	ward_and_allport	89	31.0	0.459	to_board	poldrack-single-stim	s645	False
0.1	350.827	0.889	351.716	0	PA_without_intermediate	test	ward_and_allport	82	31.0	0.889	to_hand	poldrack-single-stim	s645	False
0.1	351.717	0.386	352.103	0	PA_without_intermediate	test	ward_and_allport	71	31.0	0.386	to_board	poldrack-single-stim	s645	False
1.0	352.113	5.128	352.112	0	PA_without_intermediate	test	ward_and_allport	-1	31.0	n/a	feedback	poldrack-single-stim	s645	False
2.499	357.248	2.499	359.747	1	PA_without_intermediate	test	ward_and_allport	82	32.0	2.499	to_hand	poldrack-single-stim	s645	False
0.1	359.749	0.519	360.268	0	PA_without_intermediate	test	ward_and_allport	89	32.0	0.519	to_board	poldrack-single-stim	s645	False
0.1	360.277	1.232	361.509	0	PA_without_intermediate	test	ward_and_allport	82	32.0	1.232	to_hand	poldrack-single-stim	s645	False
0.1	361.51	0.484	361.994	0	PA_without_intermediate	test	ward_and_allport	71	32.0	0.484	to_board	poldrack-single-stim	s645	False
0.1	362.003	0.58	362.583	0	PA_without_intermediate	test	ward_and_allport	82	32.0	0.58	to_hand	poldrack-single-stim	s645	False
0.1	362.585	0.384	362.969	0	PA_without_intermediate	test	ward_and_allport	89	32.0	0.384	to_board	poldrack-single-stim	s645	False
1.0	362.983	2.136	362.982	0	PA_without_intermediate	test	ward_and_allport	-1	32.0	n/a	feedback	poldrack-single-stim	s645	False
2.597	365.128	2.597	367.725	1	PA_without_intermediate	test	ward_and_allport	71	33.0	2.597	to_hand	poldrack-single-stim	s645	False
0.1	367.726	0.55	368.276	0	PA_without_intermediate	test	ward_and_allport	89	33.0	0.55	to_board	poldrack-single-stim	s645	False
0.1	368.283	0.488	368.771	0	PA_without_intermediate	test	ward_and_allport	71	33.0	0.488	to_hand	poldrack-single-stim	s645	False
0.1	368.773	0.533	369.306	0	PA_without_intermediate	test	ward_and_allport	82	33.0	0.533	to_board	poldrack-single-stim	s645	False
0.1	369.314	0.585	369.899	0	PA_without_intermediate	test	ward_and_allport	71	33.0	0.585	to_hand	poldrack-single-stim	s645	False
0.1	369.9	0.411	370.311	0	PA_without_intermediate	test	ward_and_allport	89	33.0	0.411	to_board	poldrack-single-stim	s645	False
1.0	370.322	5.264	370.321	0	PA_without_intermediate	test	ward_and_allport	-1	33.0	n/a	feedback	poldrack-single-stim	s645	False
3.309	375.594	3.309	378.903	1	PA_with_intermediate	test	ward_and_allport	89	34.0	3.309	to_hand	poldrack-single-stim	s645	False
0.1	378.903	0.567	379.47	0	PA_with_intermediate	test	ward_and_allport	82	34.0	0.567	to_board	poldrack-single-stim	s645	False
0.1	379.478	0.456	379.934	0	PA_with_intermediate	test	ward_and_allport	89	34.0	0.456	to_hand	poldrack-single-stim	s645	False
0.1	379.935	0.6	380.535	0	PA_with_intermediate	test	ward_and_allport	71	34.0	0.6	to_board	poldrack-single-stim	s645	False
0.1	380.545	0.573	381.118	0	PA_with_intermediate	test	ward_and_allport	82	34.0	0.573	to_hand	poldrack-single-stim	s645	False
0.1	381.118	0.368	381.486	0	PA_with_intermediate	test	ward_and_allport	89	34.0	0.368	to_board	poldrack-single-stim	s645	False
1.0	381.501	4.04	381.5	0	PA_with_intermediate	test	ward_and_allport	-1	34.0	n/a	feedback	poldrack-single-stim	s645	False
2.47	385.551	2.47	388.021	1	PA_with_intermediate	test	ward_and_allport	82	35.0	2.47	to_hand	poldrack-single-stim	s645	False
0.1	388.022	0.48	388.502	0	PA_with_intermediate	test	ward_and_allport	71	35.0	0.48	to_board	poldrack-single-stim	s645	False
0.1	388.509	0.546	389.055	0	PA_with_intermediate	test	ward_and_allport	82	35.0	0.546	to_hand	poldrack-single-stim	s645	False
0.1	389.057	0.495	389.552	0	PA_with_intermediate	test	ward_and_allport	89	35.0	0.495	to_board	poldrack-single-stim	s645	False
0.1	389.562	0.812	390.374	0	PA_with_intermediate	test	ward_and_allport	71	35.0	0.812	to_hand	poldrack-single-stim	s645	False
0.1	390.374	0.543	390.917	0	PA_with_intermediate	test	ward_and_allport	89	35.0	0.543	to_board	poldrack-single-stim	s645	False
1.0	390.929	2.136	390.928	0	PA_with_intermediate	test	ward_and_allport	-1	35.0	n/a	feedback	poldrack-single-stim	s645	False
3.505	393.072	3.505	396.577	1	PA_with_intermediate	test	ward_and_allport	82	36.0	3.505	to_hand	poldrack-single-stim	s645	False
0.1	396.578	0.527	397.105	0	PA_with_intermediate	test	ward_and_allport	89	36.0	0.527	to_board	poldrack-single-stim	s645	False
0.1	397.111	0.591	397.702	0	PA_with_intermediate	test	ward_and_allport	82	36.0	0.591	to_hand	poldrack-single-stim	s645	False
0.1	397.704	0.51	398.214	0	PA_with_intermediate	test	ward_and_allport	71	36.0	0.51	to_board	poldrack-single-stim	s645	False
0.1	398.223	0.617	398.84	0	PA_with_intermediate	test	ward_and_allport	89	36.0	0.617	to_hand	poldrack-single-stim	s645	False
0.1	398.841	0.604	399.445	0	PA_with_intermediate	test	ward_and_allport	82	36.0	0.604	to_board	poldrack-single-stim	s645	False
1.0	399.46	2.408	399.459	0	PA_with_intermediate	test	ward_and_allport	-1	36.0	n/a	feedback	poldrack-single-stim	s645	False
3.336	401.878	3.336	405.214	1	PA_without_intermediate	test	ward_and_allport	82	37.0	3.336	to_hand	poldrack-single-stim	s645	False
0.1	405.216	0.598	405.814	0	PA_without_intermediate	test	ward_and_allport	71	37.0	0.598	to_board	poldrack-single-stim	s645	False
0.1	405.821	0.636	406.457	0	PA_without_intermediate	test	ward_and_allport	82	37.0	0.636	to_hand	poldrack-single-stim	s645	False
0.1	406.458	0.541	406.999	0	PA_without_intermediate	test	ward_and_allport	89	37.0	0.541	to_board	poldrack-single-stim	s645	False
0.1	407.008	1.319	408.327	0	PA_without_intermediate	test	ward_and_allport	82	37.0	1.319	to_hand	poldrack-single-stim	s645	False
0.1	408.328	0.346	408.674	0	PA_without_intermediate	test	ward_and_allport	71	37.0	0.346	to_board	poldrack-single-stim	s645	False
1.0	408.69	2.68	408.689	0	PA_without_intermediate	test	ward_and_allport	-1	37.0	n/a	feedback	poldrack-single-stim	s645	False
2.921	411.379	2.921	414.3	1	PA_with_intermediate	test	ward_and_allport	89	38.0	2.921	to_hand	poldrack-single-stim	s645	False
0.1	414.301	0.551	414.852	0	PA_with_intermediate	test	ward_and_allport	82	38.0	0.551	to_board	poldrack-single-stim	s645	False
0.1	414.859	0.432	415.291	0	PA_with_intermediate	test	ward_and_allport	89	38.0	0.432	to_hand	poldrack-single-stim	s645	False
0.1	415.292	0.434	415.726	0	PA_with_intermediate	test	ward_and_allport	71	38.0	0.434	to_board	poldrack-single-stim	s645	False
0.1	415.735	0.527	416.262	0	PA_with_intermediate	test	ward_and_allport	82	38.0	0.527	to_hand	poldrack-single-stim	s645	False
0.1	416.264	0.371	416.635	0	PA_with_intermediate	test	ward_and_allport	89	38.0	0.371	to_board	poldrack-single-stim	s645	False
1.0	416.649	4.72	416.648	0	PA_with_intermediate	test	ward_and_allport	-1	38.0	n/a	feedback	poldrack-single-stim	s645	False
3.462	421.376	3.462	424.838	1	PA_without_intermediate	test	ward_and_allport	71	39.0	3.462	to_hand	poldrack-single-stim	s645	False
0.1	424.84	0.561	425.401	0	PA_without_intermediate	test	ward_and_allport	89	39.0	0.561	to_board	poldrack-single-stim	s645	False
0.1	425.411	1.186	426.597	0	PA_without_intermediate	test	ward_and_allport	71	39.0	1.186	to_hand	poldrack-single-stim	s645	False
0.1	426.598	0.43	427.028	0	PA_without_intermediate	test	ward_and_allport	89	39.0	0.43	to_board	poldrack-single-stim	s645	False
0.1	427.039	0.599	427.638	0	PA_without_intermediate	test	ward_and_allport	71	39.0	0.599	to_hand	poldrack-single-stim	s645	False
0.1	427.639	0.372	428.011	0	PA_without_intermediate	test	ward_and_allport	82	39.0	0.372	to_board	poldrack-single-stim	s645	False
1.0	428.025	3.224	428.024	0	PA_without_intermediate	test	ward_and_allport	-1	39.0	n/a	feedback	poldrack-single-stim	s645	False
1.721	431.258	1.721	432.979	1	PA_without_intermediate	test	ward_and_allport	89	40.0	1.721	to_hand	poldrack-single-stim	s645	False
0.1	432.98	0.57	433.55	0	PA_without_intermediate	test	ward_and_allport	71	40.0	0.57	to_board	poldrack-single-stim	s645	False
0.1	433.558	1.32	434.878	0	PA_without_intermediate	test	ward_and_allport	89	40.0	1.32	to_hand	poldrack-single-stim	s645	False
0.1	434.879	0.505	435.384	0	PA_without_intermediate	test	ward_and_allport	82	40.0	0.505	to_board	poldrack-single-stim	s645	False
0.1	435.394	0.446	435.84	0	PA_without_intermediate	test	ward_and_allport	89	40.0	0.446	to_hand	poldrack-single-stim	s645	False
0.1	435.841	0.365	436.206	0	PA_without_intermediate	test	ward_and_allport	71	40.0	0.365	to_board	poldrack-single-stim	s645	False
1.0	436.221	2.272	436.22	0	PA_without_intermediate	test	ward_and_allport	-1	40.0	n/a	feedback	poldrack-single-stim	s645	False
3.363	438.503	3.363	441.866	1	PA_with_intermediate	test	ward_and_allport	82	41.0	3.363	to_hand	poldrack-single-stim	s645	False
0.1	441.868	0.466	442.334	0	PA_with_intermediate	test	ward_and_allport	71	41.0	0.466	to_board	poldrack-single-stim	s645	False
0.1	442.343	0.921	443.264	0	PA_with_intermediate	test	ward_and_allport	82	41.0	0.921	to_hand	poldrack-single-stim	s645	False
0.1	443.265	0.499	443.764	0	PA_with_intermediate	test	ward_and_allport	89	41.0	0.499	to_board	poldrack-single-stim	s645	False
0.1	443.775	0.428	444.203	0	PA_with_intermediate	test	ward_and_allport	71	41.0	0.428	to_hand	poldrack-single-stim	s645	False
0.1	444.205	0.427	444.632	0	PA_with_intermediate	test	ward_and_allport	82	41.0	0.427	to_board	poldrack-single-stim	s645	False
1.0	444.647	3.632	444.646	0	PA_with_intermediate	test	ward_and_allport	-1	41.0	n/a	feedback	poldrack-single-stim	s645	False
2.566	448.29	2.566	450.856	1	PA_without_intermediate	test	ward_and_allport	71	42.0	2.566	to_hand	poldrack-single-stim	s645	False
0.1	450.858	0.416	451.274	0	PA_without_intermediate	test	ward_and_allport	82	42.0	0.416	to_board	poldrack-single-stim	s645	False
0.1	451.281	0.417	451.698	0	PA_without_intermediate	test	ward_and_allport	71	42.0	0.417	to_hand	poldrack-single-stim	s645	False
0.1	451.699	0.451	452.15	0	PA_without_intermediate	test	ward_and_allport	82	42.0	0.451	to_board	poldrack-single-stim	s645	False
0.1	452.16	0.433	452.593	0	PA_without_intermediate	test	ward_and_allport	71	42.0	0.433	to_hand	poldrack-single-stim	s645	False
0.1	452.594	0.367	452.961	0	PA_without_intermediate	test	ward_and_allport	89	42.0	0.367	to_board	poldrack-single-stim	s645	False
1.0	452.976	2.408	452.975	0	PA_without_intermediate	test	ward_and_allport	-1	42.0	n/a	feedback	poldrack-single-stim	s645	False
2.526	455.392	2.526	457.918	1	PA_without_intermediate	test	ward_and_allport	89	43.0	2.526	to_hand	poldrack-single-stim	s645	False
0.1	457.92	0.443	458.363	0	PA_without_intermediate	test	ward_and_allport	82	43.0	0.443	to_board	poldrack-single-stim	s645	False
0.1	458.371	0.353	458.724	0	PA_without_intermediate	test	ward_and_allport	89	43.0	0.353	to_hand	poldrack-single-stim	s645	False
0.1	458.726	0.397	459.123	0	PA_without_intermediate	test	ward_and_allport	71	43.0	0.397	to_board	poldrack-single-stim	s645	False
0.1	459.132	0.363	459.495	0	PA_without_intermediate	test	ward_and_allport	89	43.0	0.363	to_hand	poldrack-single-stim	s645	False
0.1	459.497	0.536	460.033	0	PA_without_intermediate	test	ward_and_allport	82	43.0	0.536	to_board	poldrack-single-stim	s645	False
1.0	460.047	2.0	460.046	0	PA_without_intermediate	test	ward_and_allport	-1	43.0	n/a	feedback	poldrack-single-stim	s645	False
1.803	462.057	1.803	463.86	1	PA_with_intermediate	test	ward_and_allport	71	44.0	1.803	to_hand	poldrack-single-stim	s645	False
0.1	463.861	0.374	464.235	0	PA_with_intermediate	test	ward_and_allport	89	44.0	0.374	to_board	poldrack-single-stim	s645	False
0.1	464.243	0.385	464.628	0	PA_with_intermediate	test	ward_and_allport	71	44.0	0.385	to_hand	poldrack-single-stim	s645	False
0.1	464.63	0.423	465.053	0	PA_with_intermediate	test	ward_and_allport	82	44.0	0.423	to_board	poldrack-single-stim	s645	False
0.1	465.061	0.376	465.437	0	PA_with_intermediate	test	ward_and_allport	89	44.0	0.376	to_hand	poldrack-single-stim	s645	False
0.1	465.438	0.394	465.832	0	PA_with_intermediate	test	ward_and_allport	82	44.0	0.394	to_board	poldrack-single-stim	s645	False
1.0	465.845	2.0	465.844	0	PA_with_intermediate	test	ward_and_allport	-1	44.0	n/a	feedback	poldrack-single-stim	s645	False
2.883	472.86	2.883	475.743	1	PA_with_intermediate	test	ward_and_allport	82	45.0	2.883	to_hand	poldrack-single-stim	s645	False
0.1	475.744	0.371	476.115	0	PA_with_intermediate	test	ward_and_allport	89	45.0	0.371	to_board	poldrack-single-stim	s645	False
0.1	476.125	0.366	476.491	0	PA_with_intermediate	test	ward_and_allport	82	45.0	0.366	to_hand	poldrack-single-stim	s645	False
0.1	476.492	0.358	476.85	0	PA_with_intermediate	test	ward_and_allport	71	45.0	0.358	to_board	poldrack-single-stim	s645	False
0.1	476.86	0.356	477.216	0	PA_with_intermediate	test	ward_and_allport	89	45.0	0.356	to_hand	poldrack-single-stim	s645	False
0.1	477.217	0.339	477.556	0	PA_with_intermediate	test	ward_and_allport	71	45.0	0.339	to_board	poldrack-single-stim	s645	False
1.0	477.57	2.0	477.569	0	PA_with_intermediate	test	ward_and_allport	-1	45.0	n/a	feedback	poldrack-single-stim	s645	False
2.341	479.582	2.341	481.923	1	PA_with_intermediate	test	ward_and_allport	89	46.0	2.341	to_hand	poldrack-single-stim	s645	False
0.1	481.925	0.358	482.283	0	PA_with_intermediate	test	ward_and_allport	82	46.0	0.358	to_board	poldrack-single-stim	s645	False
0.1	482.293	0.313	482.606	0	PA_with_intermediate	test	ward_and_allport	89	46.0	0.313	to_hand	poldrack-single-stim	s645	False
0.1	482.607	0.46	483.067	0	PA_with_intermediate	test	ward_and_allport	71	46.0	0.46	to_board	poldrack-single-stim	s645	False
0.1	483.076	0.343	483.419	0	PA_with_intermediate	test	ward_and_allport	82	46.0	0.343	to_hand	poldrack-single-stim	s645	False
0.1	483.42	0.337	483.757	0	PA_with_intermediate	test	ward_and_allport	71	46.0	0.337	to_board	poldrack-single-stim	s645	False
1.0	483.77	2.408	483.769	0	PA_with_intermediate	test	ward_and_allport	-1	46.0	n/a	feedback	poldrack-single-stim	s645	False
2.468	486.187	2.468	488.655	1	PA_without_intermediate	test	ward_and_allport	89	47.0	2.468	to_hand	poldrack-single-stim	s645	False
0.1	488.656	0.376	489.032	0	PA_without_intermediate	test	ward_and_allport	71	47.0	0.376	to_board	poldrack-single-stim	s645	False
0.1	489.042	0.374	489.416	0	PA_without_intermediate	test	ward_and_allport	89	47.0	0.374	to_hand	poldrack-single-stim	s645	False
0.1	489.418	0.44	489.858	0	PA_without_intermediate	test	ward_and_allport	82	47.0	0.44	to_board	poldrack-single-stim	s645	False
0.1	489.868	0.376	490.244	0	PA_without_intermediate	test	ward_and_allport	89	47.0	0.376	to_hand	poldrack-single-stim	s645	False
0.1	490.245	0.366	490.611	0	PA_without_intermediate	test	ward_and_allport	71	47.0	0.366	to_board	poldrack-single-stim	s645	False
1.0	490.625	2.816	490.624	0	PA_without_intermediate	test	ward_and_allport	-1	47.0	n/a	feedback	poldrack-single-stim	s645	False
