onset	duration	movement_onset	coded_response	experiment_exp_id	item_coding	item_responses	item_text	possible_responses	response_time	survey	trial_type	worker_id	junk
1.007	8.5	8.231	3.0	survey_medley	reverse	66,89,71,82,77	I have difficulty maintaining my focus on projects that take more than a few months to complete.	66,89,71,82,77	7.224	grit	Q06	s645	False
12.322	8.5	17.437	4.0	survey_medley	reverse	66,89,71,82,77	New ideas and projects sometimes distract me from previous ones.	66,89,71,82,77	5.115	grit	Q01	s645	False
21.935	8.5	26.737	5.0	survey_medley	reverse	66,89,71,82,77	I do certain things that are bad for me, if they are fun.	66,89,71,82,77	4.802	brief	Q13	s645	False
31.142	8.5	35.313	4.0	survey_medley	forward	66,89,71,82,77	I am good at resisting temptation.	66,89,71,82,77	4.171	brief	Q09	s645	False
40.689	8.5	44.538	4.0	survey_medley	reverse	66,89,71,82,77	I often act without thinking through all the alternatives.	66,89,71,82,77	3.849	brief	Q21	s645	False
50.167	8.5	52.696	4.0	survey_medley	forward	66,89,71,82,77	I am a hard worker.	66,89,71,82,77	2.529	grit	Q04	s645	False
59.374	8.5	61.992	5.0	survey_medley	forward	66,89,71,82,77	There is plenty of time left in my life to make new plans.	66,89,71,82,77	2.618	future_time	Q28	s645	False
69.464	8.5	72.861	1.0	survey_medley	forward	66,89,71,82,77	I have the sense that time is running out.	66,89,71,82,77	3.397	future_time	Q29	s645	False
80.371	8.5	86.355	4.0	survey_medley	reverse	66,89,71,82,77	I have a hard time breaking bad habits.	66,89,71,82,77	5.984	brief	Q10	s645	False
90.257	8.5	93.822	2.0	survey_medley	forward	66,89	Do you sometimes like doing things that are a bit frightening?	66,89,71,82,77	3.565	impulsive_venture	Q39	s645	False
99.396	8.5	103.056	4.0	survey_medley	forward	66,89,71,82,77	I finish whatever I begin.	66,89,71,82,77	3.66	grit	Q07	s645	False
109.758	8.5	115.738	2.0	survey_medley	forward	66,89,71,82,77	Setbacks don't discourage me.	66,89,71,82,77	5.98	grit	Q02	s645	False
119.441	8.5	123.865	3.0	survey_medley	forward	66,89,71,82,77	People would say that I have iron self-discipline.	66,89,71,82,77	4.424	brief	Q16	s645	False
129.599	8.5	136.824	1.0	survey_medley	forward	66,89,71,82	When I am really excited, I tend not to think of the consequences of my actions.	66,89,71,82,77	7.225	upps	Q36	s645	False
138.804	8.5	142.592	4.0	survey_medley	forward	66,89,71,82,77	I am able to work effectively toward long-term goals.	66,89,71,82,77	3.788	brief	Q19	s645	False
149.983	8.5	154.18	5.0	survey_medley	reverse	66,89,71,82,77	Sometimes I can't stop myself from doing something, even if I know it is wrong.	66,89,71,82,77	4.197	brief	Q20	s645	False
159.258	8.5	164.13	1.0	survey_medley	forward	66,89,71,82,77	As I get older, I begin to experience time as limited.	66,89,71,82,77	4.872	future_time	Q31	s645	False
168.872	8.5	173.043	1.0	survey_medley	forward	66,89,71,82	Others would say I make bad choices when I am extremely happy about something.	66,89,71,82,77	4.171	upps	Q33	s645	False
177.942	8.5	181.268	2.0	survey_medley	reverse	66,89,71,82,77	Pleasure and fun sometimes keep me from getting work done.	66,89,71,82,77	3.326	brief	Q17	s645	False
186.944	8.5	189.712	5.0	survey_medley	forward	66,89,71,82,77	I am diligent.	66,89,71,82,77	2.768	grit	Q08	s645	False
201.25	8.5	205.173	1.0	survey_medley	forward	66,89,71,82	I tend to act without thinking when I am really excited.	66,89,71,82,77	3.923	upps	Q37	s645	False
210.321	8.5	212.195	5.0	survey_medley	reverse	66,89,71,82,77	I say inappropriate things.	66,89,71,82,77	1.874	brief	Q12	s645	False
220.616	8.5	222.912	3.0	survey_medley	forward	66,89,71,82,77	My future is filled with possibilities.	66,89,71,82,77	2.296	future_time	Q24	s645	False
232.406	8.5	238.441	3.0	survey_medley	reverse	66,89,71,82,77	I have trouble concentrating.	66,89,71,82,77	6.035	brief	Q18	s645	False
241.612	8.5	244.999	2.0	survey_medley	forward	66,89	Do you welcome new and exciting experiences and sensations even if they are a little frightening and unconventional?	66,89,71,82,77	3.387	impulsive_venture	Q38	s645	False
251.091	8.5	255.426	5.0	survey_medley	forward	66,89,71,82,77	I expect that I will set many new goals in the future.	66,89,71,82,77	4.335	future_time	Q23	s645	False
261.045	8.5	265.137	2.0	survey_medley	forward	66,89,71,82,77	There are only limited possibilities in my future.	66,89,71,82,77	4.092	future_time	Q30	s645	False
272.902	8.5	281.974	3.0	survey_medley	reverse	66,89,71,82,77	I have been obsessed with a certain idea or project for a short time but later lost interest.	66,89,71,82,77	9.072	grit	Q03	s645	False
282.108	8.5	285.378	3.0	survey_medley	forward	66,89,71,82,77	I could do anything I want in the future.	66,89,71,82,77	3.27	future_time	Q27	s645	False
293.627	8.5	296.917	1.0	survey_medley	forward	66,89,71,82	When overjoyed, I feel like I cant stop myself from going overboard.	66,89,71,82,77	3.29	upps	Q35	s645	False
302.629	8.5	304.81	5.0	survey_medley	forward	66,89,71,82,77	Most of my life lies ahead of me.	66,89,71,82,77	2.181	future_time	Q25	s645	False
311.767	8.5	314.62	4.0	survey_medley	reverse	66,89,71,82,77	I am lazy.	66,89,71,82,77	2.853	brief	Q11	s645	False
321.382	8.5	324.047	5.0	survey_medley	forward	66,89,71,82,77	I refuse things that are bad for me.	66,89,71,82,77	2.665	brief	Q14	s645	False
330.996	8.5	334.641	5.0	survey_medley	forward	66,89,71,82,77	Many opportunities await me in the future.	66,89,71,82,77	3.645	future_time	Q22	s645	False
341.291	8.5	345.348	3.0	survey_medley	reverse	66,89,71,82,77	I often set a goal but later choose to pursue a different one.	66,89,71,82,77	4.057	grit	Q05	s645	False
351.381	8.5	355.243	1.0	survey_medley	forward	66,89,71,82	When I get really happy about something, I tend to do things that can have bad consequences.	66,89,71,82,77	3.862	upps	Q34	s645	False
360.452	8.5	363.567	2.0	survey_medley	forward	66,89,71,82,77	My future seems infinite to me.	66,89,71,82,77	3.115	future_time	Q26	s645	False
370.611	8.5	377.048	2.0	survey_medley	forward	66,89,71,82	Sometimes when I feel bad, I can't seem to stop what I am doing even though it is making me feel worse.	66,89,71,82,77	6.437	upps	Q32	s645	False
380.497	8.5	385.995	3.0	survey_medley	reverse	66,89,71,82,77	I wish I had more self-discipline.	66,89,71,82,77	5.498	brief	Q15	s645	False
390.181	8.5	393.888	2.0	survey_medley	forward	66,89	Would you enjoy the sensation of skiing very fast down a high mountain slope?	66,89,71,82,77	3.707	impulsive_venture	Q40	s645	False
