onset	duration	movement_onset	EV	action	block_duration	experiment_exp_id	gain_amount	gain_probability	key_press	loss_amount	loss_probability	num_cards	num_click_in_round	num_loss_cards	risk	response_time	total_cards	trial_id	trial_type	worker_id	junk	feedback
3.017	4.47	7.487	-2.2143767813849777	draw_card	4.47	columbia_card_task_fmri	12.0	0.8333333333333334	89.0	-70.0	0.1666666666666666	6.0	1.0	1.0	-1.8026860245302456	4.47	n/a	stim	poldrack-single-stim	s645	False	1
7.49	2.139	9.629	-4.94771011471831	end_round	2.139	columbia_card_task_fmri	12.0	0.8	71.0	-70.0	0.2	6.0	2.0	1.0	0.4373831023939729	2.139	1.0	stim	poldrack-single-stim	s645	False	1
10.386	1.5	9.635	n/a	-1.0	2.318	columbia_card_task_fmri	n/a	n/a	-1.0	n/a	n/a	n/a	n/a	n/a	n/a	n/a	n/a	ITI	poldrack-single-stim	s645	False	0
11.955	5.376	17.331	-1.381043448051644	end_round	5.376	columbia_card_task_fmri	14.0	0.8333333333333334	71.0	-75.0	0.1666666666666666	6.0	1.0	1.0	0.8056739953906131	5.376	0.0	stim	poldrack-single-stim	s645	False	1
18.088	1.5	17.337	n/a	-1.0	2.318	columbia_card_task_fmri	n/a	n/a	-1.0	n/a	n/a	n/a	n/a	n/a	n/a	n/a	n/a	ITI	poldrack-single-stim	s645	False	0
19.658	2.258	21.916	0.285623218615022	draw_card	2.258	columbia_card_task_fmri	15.0	0.8333333333333334	89.0	-70.0	0.1666666666666666	6.0	1.0	1.0	-0.6848252267670283	2.258	n/a	stim	poldrack-single-stim	s645	False	1
21.917	2.931	24.848	-2.547710114718312	end_round	2.931	columbia_card_task_fmri	15.0	0.8	71.0	-70.0	0.2	6.0	2.0	1.0	1.6372217362701136	2.931	1.0	stim	poldrack-single-stim	s645	False	1
25.607	1.5	24.856	n/a	-1.0	2.862	columbia_card_task_fmri	n/a	n/a	-1.0	n/a	n/a	n/a	n/a	n/a	n/a	n/a	n/a	ITI	poldrack-single-stim	s645	False	0
27.721	2.246	29.967	1.118956551948356	draw_card	2.246	columbia_card_task_fmri	17.0	0.8333333333333334	89.0	-75.0	0.1666666666666666	6.0	1.0	1.0	1.9235605509536384	2.246	n/a	stim	poldrack-single-stim	s645	False	1
29.968	1.205	31.173	-1.9477101147183105	end_round	1.205	columbia_card_task_fmri	17.0	0.8	71.0	-75.0	0.2	6.0	2.0	1.0	4.4368861342444745	1.205	1.0	stim	poldrack-single-stim	s645	False	1
31.929	1.5	31.178	n/a	-1.0	2.726	columbia_card_task_fmri	n/a	n/a	-1.0	n/a	n/a	n/a	n/a	n/a	n/a	n/a	n/a	ITI	poldrack-single-stim	s645	False	0
33.908	2.57	36.478	2.4522898852816883	draw_card	2.57	columbia_card_task_fmri	24.0	0.75	89.0	-60.0	0.25	8.0	1.0	2.0	4.010000926514465	2.57	n/a	stim	poldrack-single-stim	s645	False	1
36.478	2.439	38.917	-0.5477101147183119	end_round	2.439	columbia_card_task_fmri	24.0	0.7142857142857143	71.0	-60.0	0.2857142857142857	8.0	2.0	2.0	5.584094841840475	2.439	1.0	stim	poldrack-single-stim	s645	False	1
39.674	1.5	38.923	n/a	-1.0	2.25	columbia_card_task_fmri	n/a	n/a	-1.0	n/a	n/a	n/a	n/a	n/a	n/a	n/a	n/a	ITI	poldrack-single-stim	s645	False	0
41.176	2.085	43.261	2.4522898852816883	draw_card	2.085	columbia_card_task_fmri	29.0	0.75	89.0	-75.0	0.25	8.0	1.0	2.0	12.669462047406933	2.085	n/a	stim	poldrack-single-stim	s645	False	1
43.263	3.546	46.809	-1.2619958290040236	end_round	3.546	columbia_card_task_fmri	29.0	0.7142857142857143	71.0	-75.0	0.2857142857142857	8.0	2.0	2.0	14.618413839906538	3.546	1.0	stim	poldrack-single-stim	s645	False	1
47.563	1.5	46.812	n/a	-1.0	2.318	columbia_card_task_fmri	n/a	n/a	-1.0	n/a	n/a	n/a	n/a	n/a	n/a	n/a	n/a	ITI	poldrack-single-stim	s645	False	0
49.133	2.402	51.535	-1.7699323369405315	draw_card	2.402	columbia_card_task_fmri	17.0	0.7777777777777778	89.0	-65.0	0.2222222222222222	9.0	1.0	2.0	1.727866197622248	2.402	1.0	stim	poldrack-single-stim	s645	False	0
52.292	1.5	51.541	n/a	-1.0	2.454	columbia_card_task_fmri	n/a	n/a	-1.0	n/a	n/a	n/a	n/a	n/a	n/a	n/a	n/a	ITI	poldrack-single-stim	s645	False	0
53.999	3.834	57.833	2.552289885281688	draw_card	3.834	columbia_card_task_fmri	14.0	0.9	89.0	-95.0	0.1	10.0	1.0	1.0	0.3373970840572937	3.834	n/a	stim	poldrack-single-stim	s645	False	1
57.834	0.123	57.957	1.3411787741705756	draw_card	0.123	columbia_card_task_fmri	14.0	0.8888888888888888	89.0	-95.0	0.1111111111111111	10.0	2.0	1.0	1.89258402916164	0.123	n/a	stim	poldrack-single-stim	s645	False	1
57.957	3.926	61.883	-0.1727101147183118	end_round	3.926	columbia_card_task_fmri	14.0	0.875	71.0	-95.0	0.125	10.0	3.0	1.0	3.685332719035564	3.926	2.0	stim	poldrack-single-stim	s645	False	1
62.639	1.5	61.888	n/a	-1.0	2.522	columbia_card_task_fmri	n/a	n/a	-1.0	n/a	n/a	n/a	n/a	n/a	n/a	n/a	n/a	ITI	poldrack-single-stim	s645	False	0
64.413	2.498	66.911	-1.547710114718312	draw_card	2.498	columbia_card_task_fmri	15.0	0.8	89.0	-65.0	0.2	10.0	1.0	2.0	-0.3625025980375724	2.498	n/a	stim	poldrack-single-stim	s645	False	1
66.913	1.239	68.152	-3.3254878924960884	draw_card	1.239	columbia_card_task_fmri	15.0	0.7777777777777778	89.0	-65.0	0.2222222222222222	10.0	2.0	2.0	0.8964967523308758	1.239	2.0	stim	poldrack-single-stim	s645	False	0
68.908	1.5	68.157	n/a	-1.0	2.318	columbia_card_task_fmri	n/a	n/a	-1.0	n/a	n/a	n/a	n/a	n/a	n/a	n/a	n/a	ITI	poldrack-single-stim	s645	False	0
70.478	1.549	72.027	0.0522898852816895	draw_card	1.549	columbia_card_task_fmri	17.0	0.8	89.0	-65.0	0.2	10.0	1.0	2.0	0.4373831023939729	1.549	n/a	stim	poldrack-single-stim	s645	False	1
72.03	1.229	73.259	-1.7699323369405315	draw_card	1.229	columbia_card_task_fmri	17.0	0.7777777777777778	89.0	-65.0	0.2222222222222222	10.0	2.0	2.0	1.727866197622248	1.229	n/a	stim	poldrack-single-stim	s645	False	1
73.259	1.134	74.393	-4.047710114718312	end_round	1.134	columbia_card_task_fmri	17.0	0.75	71.0	-65.0	0.25	10.0	3.0	2.0	3.144076084308992	1.134	2.0	stim	poldrack-single-stim	s645	False	1
75.149	1.5	74.398	n/a	-1.0	2.522	columbia_card_task_fmri	n/a	n/a	-1.0	n/a	n/a	n/a	n/a	n/a	n/a	n/a	n/a	ITI	poldrack-single-stim	s645	False	0
76.923	4.082	81.005	-1.381043448051644	draw_card	4.082	columbia_card_task_fmri	13.0	0.8333333333333334	89.0	-70.0	0.1666666666666666	12.0	1.0	2.0	-1.430067149375656	4.082	n/a	stim	poldrack-single-stim	s645	False	1
81.007	2.345	83.352	-2.638619205627405	end_round	2.345	columbia_card_task_fmri	13.0	0.8181818181818181	71.0	-70.0	0.1818181818181818	12.0	2.0	2.0	-0.3498519928467942	2.345	1.0	stim	poldrack-single-stim	s645	False	1
84.109	1.5	83.358	n/a	-1.0	2.998	columbia_card_task_fmri	n/a	n/a	-1.0	n/a	n/a	n/a	n/a	n/a	n/a	n/a	n/a	ITI	poldrack-single-stim	s645	False	0
86.361	4.976	91.337	-1.381043448051644	draw_card	4.976	columbia_card_task_fmri	15.0	0.8333333333333334	89.0	-80.0	0.1666666666666666	12.0	1.0	2.0	3.041456416359665	4.976	n/a	stim	poldrack-single-stim	s645	False	1
91.338	1.76	93.098	-2.820437387445587	draw_card	1.76	columbia_card_task_fmri	15.0	0.8181818181818181	89.0	-80.0	0.1818181818181818	12.0	2.0	2.0	4.277891572028771	1.76	n/a	stim	poldrack-single-stim	s645	False	1
93.1	2.979	96.079	-4.547710114718312	end_round	2.979	columbia_card_task_fmri	15.0	0.8	71.0	-80.0	0.2	12.0	3.0	2.0	5.636757442269314	2.979	2.0	stim	poldrack-single-stim	s645	False	1
96.835	1.5	96.084	n/a	-1.0	2.318	columbia_card_task_fmri	n/a	n/a	-1.0	n/a	n/a	n/a	n/a	n/a	n/a	n/a	n/a	ITI	poldrack-single-stim	s645	False	0
98.405	3.609	102.014	-2.3477101147183106	draw_card	3.609	columbia_card_task_fmri	14.0	0.8	89.0	-65.0	0.2	15.0	1.0	3.0	-0.7624432784892221	3.609	n/a	stim	poldrack-single-stim	s645	False	1
102.016	1.317	103.333	-3.4762815432897387	draw_card	1.317	columbia_card_task_fmri	14.0	0.7857142857142857	89.0	-65.0	0.2142857142857142	15.0	2.0	3.0	0.0531836610660505	1.317	2.0	stim	poldrack-single-stim	s645	False	0
104.09	1.5	103.339	n/a	-1.0	2.25	columbia_card_task_fmri	n/a	n/a	-1.0	n/a	n/a	n/a	n/a	n/a	n/a	n/a	n/a	ITI	poldrack-single-stim	s645	False	0
105.592	3.509	109.101	-2.422710114718312	end_round	3.509	columbia_card_task_fmri	1.0	0.9375	71.0	-45.0	0.0625	16.0	1.0	1.0	-21.218899925485186	3.509	0.0	stim	poldrack-single-stim	s645	False	1
109.856	1.5	109.105	n/a	-1.0	2.454	columbia_card_task_fmri	n/a	n/a	-1.0	n/a	n/a	n/a	n/a	n/a	n/a	n/a	n/a	ITI	poldrack-single-stim	s645	False	0
111.563	4.997	116.56	-1.485210114718312	end_round	4.997	columbia_card_task_fmri	15.0	0.8125	71.0	-70.0	0.1875	16.0	1.0	3.0	0.8138830767604404	4.997	0.0	stim	poldrack-single-stim	s645	False	1
117.317	1.5	116.566	n/a	-1.0	2.318	columbia_card_task_fmri	n/a	n/a	-1.0	n/a	n/a	n/a	n/a	n/a	n/a	n/a	n/a	ITI	poldrack-single-stim	s645	False	0
118.887	2.1	120.987	5.452289885281688	draw_card	2.1	columbia_card_task_fmri	30.0	0.7	89.0	-50.0	0.3	10.0	1.0	3.0	4.29750718908835	2.1	1.0	stim	poldrack-single-stim	s645	False	0
121.743	1.5	120.992	n/a	-1.0	2.318	columbia_card_task_fmri	n/a	n/a	-1.0	n/a	n/a	n/a	n/a	n/a	n/a	n/a	n/a	ITI	poldrack-single-stim	s645	False	0
123.313	1.623	124.936	4.852289885281689	draw_card	1.623	columbia_card_task_fmri	17.0	0.8666666666666667	89.0	-70.0	0.1333333333333333	15.0	1.0	2.0	-2.787805059219007	1.623	n/a	stim	poldrack-single-stim	s645	False	1
124.938	0.936	125.874	4.023718456710261	draw_card	0.936	columbia_card_task_fmri	17.0	0.8571428571428572	89.0	-70.0	0.1428571428571428	15.0	2.0	2.0	-1.9186047980237504	0.936	n/a	stim	poldrack-single-stim	s645	False	1
125.876	1.739	127.615	3.0676745006663038	draw_card	1.739	columbia_card_task_fmri	17.0	0.8461538461538461	89.0	-70.0	0.1538461538461538	15.0	3.0	2.0	-0.9727060162549108	1.739	n/a	stim	poldrack-single-stim	s645	False	1
127.618	3.972	131.59	1.95228988528169	draw_card	3.972	columbia_card_task_fmri	17.0	0.8333333333333334	89.0	-70.0	0.1666666666666666	15.0	4.0	2.0	0.0604219392853266	3.972	n/a	stim	poldrack-single-stim	s645	False	1
131.592	2.748	134.34	0.634108067099868	end_round	2.748	columbia_card_task_fmri	17.0	0.8181818181818181	71.0	-70.0	0.1818181818181818	15.0	5.0	2.0	1.19271106170185	2.748	4.0	stim	poldrack-single-stim	s645	False	1
135.096	1.5	134.345	n/a	-1.0	2.59	columbia_card_task_fmri	n/a	n/a	-1.0	n/a	n/a	n/a	n/a	n/a	n/a	n/a	n/a	ITI	poldrack-single-stim	s645	False	0
136.939	4.409	141.348	0.0772898852816881	end_round	4.409	columbia_card_task_fmri	7.0	0.9375	71.0	-95.0	0.0625	16.0	1.0	1.0	-7.670846464968037	4.409	0.0	stim	poldrack-single-stim	s645	False	1
142.106	1.5	141.355	n/a	-1.0	2.25	columbia_card_task_fmri	n/a	n/a	-1.0	n/a	n/a	n/a	n/a	n/a	n/a	n/a	n/a	ITI	poldrack-single-stim	s645	False	0
143.608	3.576	147.184	1.639789885281688	end_round	3.576	columbia_card_task_fmri	9.0	0.9375	71.0	-100.0	0.0625	16.0	1.0	1.0	-5.976806253213507	3.576	0.0	stim	poldrack-single-stim	s645	False	1
147.942	1.5	147.191	n/a	-1.0	2.25	columbia_card_task_fmri	n/a	n/a	-1.0	n/a	n/a	n/a	n/a	n/a	n/a	n/a	n/a	ITI	poldrack-single-stim	s645	False	0
149.444	4.576	154.02	2.5772898852816883	end_round	4.576	columbia_card_task_fmri	15.0	0.875	71.0	-80.0	0.125	16.0	1.0	2.0	-0.9441190144268816	4.576	0.0	stim	poldrack-single-stim	s645	False	1
154.778	1.5	154.027	n/a	-1.0	2.522	columbia_card_task_fmri	n/a	n/a	-1.0	n/a	n/a	n/a	n/a	n/a	n/a	n/a	n/a	ITI	poldrack-single-stim	s645	False	0
156.553	3.751	160.304	4.702289885281688	draw_card	3.751	columbia_card_task_fmri	16.0	0.875	89.0	-70.0	0.125	16.0	1.0	2.0	-3.920089753448867	3.751	1.0	stim	poldrack-single-stim	s645	False	0
161.061	1.5	160.31	n/a	-1.0	2.454	columbia_card_task_fmri	n/a	n/a	-1.0	n/a	n/a	n/a	n/a	n/a	n/a	n/a	n/a	ITI	poldrack-single-stim	s645	False	0
162.767	2.291	165.058	6.014789885281688	draw_card	2.291	columbia_card_task_fmri	30.0	0.6875	89.0	-45.0	0.3125	16.0	1.0	5.0	2.4005552817876463	2.291	n/a	stim	poldrack-single-stim	s645	False	1
165.06	1.373	166.433	4.452289885281692	end_round	1.373	columbia_card_task_fmri	30.0	0.6666666666666667	71.0	-45.0	0.3333333333333333	16.0	2.0	5.0	2.992391710925226	1.373	1.0	stim	poldrack-single-stim	s645	False	1
167.189	1.5	166.438	n/a	-1.0	2.25	columbia_card_task_fmri	n/a	n/a	-1.0	n/a	n/a	n/a	n/a	n/a	n/a	n/a	n/a	ITI	poldrack-single-stim	s645	False	0
168.691	6.662	175.353	-2.2143767813849777	draw_card	6.662	columbia_card_task_fmri	13.0	0.8333333333333334	89.0	-75.0	0.1666666666666666	6.0	1.0	1.0	0.4330473769137839	6.662	n/a	stim	poldrack-single-stim	s645	False	1
175.354	1.447	176.801	-5.147710114718311	end_round	1.447	columbia_card_task_fmri	13.0	0.8	71.0	-75.0	0.2	6.0	2.0	1.0	2.837071370312394	1.447	1.0	stim	poldrack-single-stim	s645	False	1
177.559	1.5	176.808	n/a	-1.0	2.454	columbia_card_task_fmri	n/a	n/a	-1.0	n/a	n/a	n/a	n/a	n/a	n/a	n/a	n/a	ITI	poldrack-single-stim	s645	False	0
179.266	2.226	181.492	-0.5477101147183101	end_round	2.226	columbia_card_task_fmri	14.0	0.8333333333333334	71.0	-70.0	0.1666666666666666	6.0	1.0	1.0	-1.0574468669029358	2.226	0.0	stim	poldrack-single-stim	s645	False	1
182.249	1.5	181.498	n/a	-1.0	2.454	columbia_card_task_fmri	n/a	n/a	-1.0	n/a	n/a	n/a	n/a	n/a	n/a	n/a	n/a	ITI	poldrack-single-stim	s645	False	0
183.954	2.955	186.909	-0.5477101147183101	end_round	2.955	columbia_card_task_fmri	16.0	0.8333333333333334	71.0	-80.0	0.1666666666666666	6.0	1.0	1.0	3.414090289531593	2.955	0.0	stim	poldrack-single-stim	s645	False	1
187.667	1.5	186.916	n/a	-1.0	2.522	columbia_card_task_fmri	n/a	n/a	-1.0	n/a	n/a	n/a	n/a	n/a	n/a	n/a	n/a	ITI	poldrack-single-stim	s645	False	0
189.442	1.66	191.102	1.95228988528169	draw_card	1.66	columbia_card_task_fmri	17.0	0.8333333333333334	89.0	-70.0	0.1666666666666666	6.0	1.0	1.0	0.0604219392853266	1.66	1.0	stim	poldrack-single-stim	s645	False	0
191.859	1.5	191.108	n/a	-1.0	2.454	columbia_card_task_fmri	n/a	n/a	-1.0	n/a	n/a	n/a	n/a	n/a	n/a	n/a	n/a	ITI	poldrack-single-stim	s645	False	0
193.566	2.18	195.746	1.952289885281688	draw_card	2.18	columbia_card_task_fmri	25.0	0.75	89.0	-65.0	0.25	8.0	1.0	2.0	6.607802265356348	2.18	1.0	stim	poldrack-single-stim	s645	False	0
196.503	1.5	195.752	n/a	-1.0	2.658	columbia_card_task_fmri	n/a	n/a	-1.0	n/a	n/a	n/a	n/a	n/a	n/a	n/a	n/a	ITI	poldrack-single-stim	s645	False	0
198.414	1.389	199.803	1.952289885281688	draw_card	1.389	columbia_card_task_fmri	30.0	0.75	89.0	-80.0	0.25	8.0	1.0	2.0	15.267356602437497	1.389	n/a	stim	poldrack-single-stim	s645	False	1
199.806	2.124	201.93	-1.9762815432897356	draw_card	2.124	columbia_card_task_fmri	30.0	0.7142857142857143	89.0	-80.0	0.2857142857142857	8.0	2.0	2.0	17.328763426922052	2.124	2.0	stim	poldrack-single-stim	s645	False	0
202.688	1.5	201.937	n/a	-1.0	2.386	columbia_card_task_fmri	n/a	n/a	-1.0	n/a	n/a	n/a	n/a	n/a	n/a	n/a	n/a	ITI	poldrack-single-stim	s645	False	0
204.326	1.482	205.808	1.6522898852816892	end_round	1.482	columbia_card_task_fmri	13.0	0.9	71.0	-95.0	0.1	10.0	1.0	1.0	0.037439546776504	1.482	0.0	stim	poldrack-single-stim	s645	False	1
206.564	1.5	205.813	n/a	-1.0	2.522	columbia_card_task_fmri	n/a	n/a	-1.0	n/a	n/a	n/a	n/a	n/a	n/a	n/a	n/a	ITI	poldrack-single-stim	s645	False	0
208.34	1.863	210.203	3.052289885281688	end_round	1.863	columbia_card_task_fmri	14.0	0.9	71.0	-90.0	0.1	10.0	1.0	1.0	-1.162382438273859	1.863	0.0	stim	poldrack-single-stim	s645	False	1
210.96	1.5	210.209	n/a	-1.0	2.59	columbia_card_task_fmri	n/a	n/a	-1.0	n/a	n/a	n/a	n/a	n/a	n/a	n/a	n/a	ITI	poldrack-single-stim	s645	False	0
212.803	1.853	214.656	-1.7477101147183112	draw_card	1.853	columbia_card_task_fmri	16.0	0.8	89.0	-70.0	0.2	10.0	1.0	2.0	2.037170448877383	1.853	1.0	stim	poldrack-single-stim	s645	False	0
215.412	1.5	214.661	n/a	-1.0	2.386	columbia_card_task_fmri	n/a	n/a	-1.0	n/a	n/a	n/a	n/a	n/a	n/a	n/a	n/a	ITI	poldrack-single-stim	s645	False	0
217.052	1.234	218.286	-2.4643767813849777	end_round	1.234	columbia_card_task_fmri	7.0	0.9166666666666666	71.0	-100.0	0.0833333333333333	12.0	1.0	1.0	-2.7888803396626685	1.234	0.0	stim	poldrack-single-stim	s645	False	1
219.041	1.5	218.29	n/a	-1.0	2.59	columbia_card_task_fmri	n/a	n/a	-1.0	n/a	n/a	n/a	n/a	n/a	n/a	n/a	n/a	ITI	poldrack-single-stim	s645	False	0
220.883	3.472	224.355	-2.214376781384976	draw_card	3.472	columbia_card_task_fmri	14.0	0.8333333333333334	89.0	-80.0	0.1666666666666666	12.0	1.0	2.0	2.6688234818063705	3.472	n/a	stim	poldrack-single-stim	s645	False	1
224.358	1.231	225.589	-3.638619205627405	draw_card	1.231	columbia_card_task_fmri	14.0	0.8181818181818181	89.0	-80.0	0.1818181818181818	12.0	2.0	2.0	3.892240505565191	1.231	n/a	stim	poldrack-single-stim	s645	False	1
225.591	1.094	226.685	-5.347710114718311	end_round	1.094	columbia_card_task_fmri	14.0	0.8	71.0	-80.0	0.2	12.0	3.0	2.0	5.236799427031087	1.094	2.0	stim	poldrack-single-stim	s645	False	1
227.441	1.5	226.69	n/a	-1.0	2.318	columbia_card_task_fmri	n/a	n/a	-1.0	n/a	n/a	n/a	n/a	n/a	n/a	n/a	n/a	ITI	poldrack-single-stim	s645	False	0
229.013	1.92	230.933	-0.5477101147183119	draw_card	1.92	columbia_card_task_fmri	15.0	0.8333333333333334	89.0	-75.0	0.1666666666666666	12.0	1.0	2.0	1.1783017553648705	1.92	n/a	stim	poldrack-single-stim	s645	False	1
230.935	1.556	232.491	-1.911346478354677	draw_card	1.556	columbia_card_task_fmri	15.0	0.8181818181818181	89.0	-75.0	0.1818181818181818	12.0	2.0	2.0	2.349645913841087	1.556	n/a	stim	poldrack-single-stim	s645	False	1
232.493	5.615	238.108	-3.547710114718312	draw_card	5.615	columbia_card_task_fmri	15.0	0.8	89.0	-75.0	0.2	12.0	3.0	2.0	3.636976694457253	5.615	3.0	stim	poldrack-single-stim	s645	False	0
238.866	1.5	238.115	n/a	-1.0	2.25	columbia_card_task_fmri	n/a	n/a	-1.0	n/a	n/a	n/a	n/a	n/a	n/a	n/a	n/a	ITI	poldrack-single-stim	s645	False	0
240.368	2.204	242.572	-1.547710114718312	draw_card	2.204	columbia_card_task_fmri	15.0	0.8	89.0	-65.0	0.2	15.0	1.0	3.0	-0.3625025980375724	2.204	n/a	stim	poldrack-single-stim	s645	False	1
242.575	0.513	243.088	-2.690567257575454	draw_card	0.513	columbia_card_task_fmri	15.0	0.7857142857142857	89.0	-65.0	0.2142857142857142	15.0	2.0	3.0	0.4634517369865136	0.513	n/a	stim	poldrack-single-stim	s645	False	1
243.091	0.159	243.25	-4.009248576256775	draw_card	0.159	columbia_card_task_fmri	15.0	0.7692307692307692	89.0	-65.0	0.2307692307692307	15.0	3.0	3.0	1.3432637468220463	0.159	n/a	stim	poldrack-single-stim	s645	False	1
243.252	1.526	244.778	-5.547710114718312	end_round	1.526	columbia_card_task_fmri	15.0	0.75	71.0	-65.0	0.25	15.0	4.0	3.0	2.278156269262574	1.526	3.0	stim	poldrack-single-stim	s645	False	1
245.534	1.5	244.783	n/a	-1.0	2.454	columbia_card_task_fmri	n/a	n/a	-1.0	n/a	n/a	n/a	n/a	n/a	n/a	n/a	n/a	ITI	poldrack-single-stim	s645	False	0
247.241	2.929	250.17	-2.297710114718312	draw_card	2.929	columbia_card_task_fmri	14.0	0.8125	89.0	-70.0	0.1875	16.0	1.0	3.0	0.4236245128739071	2.929	n/a	stim	poldrack-single-stim	s645	False	1
250.175	0.787	250.962	-3.3477101147183106	end_round	0.787	columbia_card_task_fmri	14.0	0.8	71.0	-70.0	0.2	16.0	2.0	3.0	1.2372742445507825	0.787	1.0	stim	poldrack-single-stim	s645	False	1
251.717	1.5	250.966	n/a	-1.0	3.27	columbia_card_task_fmri	n/a	n/a	-1.0	n/a	n/a	n/a	n/a	n/a	n/a	n/a	n/a	ITI	poldrack-single-stim	s645	False	0
254.24	3.255	257.495	-2.360210114718312	draw_card	3.255	columbia_card_task_fmri	11.0	0.6875	89.0	-30.0	0.3125	16.0	1.0	5.0	-13.355289844009214	3.255	n/a	stim	poldrack-single-stim	s645	False	1
257.497	3.454	260.951	-3.2143767813849777	end_round	3.454	columbia_card_task_fmri	11.0	0.6666666666666667	71.0	-30.0	0.3333333333333333	16.0	2.0	5.0	-13.03184517133694	3.454	1.0	stim	poldrack-single-stim	s645	False	1
261.709	1.5	260.958	n/a	-1.0	2.25	columbia_card_task_fmri	n/a	n/a	-1.0	n/a	n/a	n/a	n/a	n/a	n/a	n/a	n/a	ITI	poldrack-single-stim	s645	False	0
263.212	2.749	265.961	2.4522898852816883	draw_card	2.749	columbia_card_task_fmri	15.0	0.8666666666666667	89.0	-75.0	0.1333333333333333	15.0	1.0	2.0	-1.7681701724099987	2.749	n/a	stim	poldrack-single-stim	s645	False	1
265.963	3.635	269.598	1.5951470281388322	end_round	3.635	columbia_card_task_fmri	15.0	0.8571428571428572	71.0	-75.0	0.1428571428571428	15.0	2.0	2.0	-0.8689876715004985	3.635	1.0	stim	poldrack-single-stim	s645	False	1
270.354	1.5	269.603	n/a	-1.0	2.25	columbia_card_task_fmri	n/a	n/a	-1.0	n/a	n/a	n/a	n/a	n/a	n/a	n/a	n/a	ITI	poldrack-single-stim	s645	False	0
271.858	1.925	273.783	4.185623218615023	draw_card	1.925	columbia_card_task_fmri	17.0	0.8666666666666667	89.0	-75.0	0.1333333333333333	15.0	1.0	2.0	-1.088407458884845	1.925	n/a	stim	poldrack-single-stim	s645	False	1
273.786	1.849	275.635	3.309432742424548	draw_card	1.849	columbia_card_task_fmri	17.0	0.8571428571428572	89.0	-75.0	0.1428571428571428	15.0	2.0	2.0	-0.1692369728316691	1.849	n/a	stim	poldrack-single-stim	s645	False	1
275.638	1.103	276.741	2.298443731435535	end_round	1.103	columbia_card_task_fmri	17.0	0.8461538461538461	71.0	-75.0	0.1538461538461538	15.0	3.0	2.0	0.8310404046185482	1.103	2.0	stim	poldrack-single-stim	s645	False	1
277.499	1.5	276.748	n/a	-1.0	2.318	columbia_card_task_fmri	n/a	n/a	-1.0	n/a	n/a	n/a	n/a	n/a	n/a	n/a	n/a	ITI	poldrack-single-stim	s645	False	0
279.071	5.799	284.87	-0.2352101147183118	end_round	5.799	columbia_card_task_fmri	2.0	0.9375	71.0	-25.0	0.0625	16.0	1.0	1.0	-25.80862032897227	5.799	0.0	stim	poldrack-single-stim	s645	False	1
285.625	1.5	284.874	n/a	-1.0	2.726	columbia_card_task_fmri	n/a	n/a	-1.0	n/a	n/a	n/a	n/a	n/a	n/a	n/a	n/a	ITI	poldrack-single-stim	s645	False	0
287.605	3.193	290.798	1.952289885281688	draw_card	3.193	columbia_card_task_fmri	9.0	0.9375	89.0	-95.0	0.0625	16.0	1.0	1.0	-7.186840331184136	3.193	n/a	stim	poldrack-single-stim	s645	False	1
290.801	1.215	292.016	1.5189565519483554	draw_card	1.215	columbia_card_task_fmri	9.0	0.9333333333333332	89.0	-95.0	0.0666666666666666	16.0	2.0	1.0	-6.419250472885839	1.215	n/a	stim	poldrack-single-stim	s645	False	1
292.019	1.53	293.549	1.0237184567102602	draw_card	1.53	columbia_card_task_fmri	9.0	0.9285714285714286	89.0	-95.0	0.0714285714285714	16.0	3.0	1.0	-5.5774948539069165	1.53	3.0	stim	poldrack-single-stim	s645	False	0
294.306	1.5	293.555	n/a	-1.0	2.386	columbia_card_task_fmri	n/a	n/a	-1.0	n/a	n/a	n/a	n/a	n/a	n/a	n/a	n/a	ITI	poldrack-single-stim	s645	False	0
295.945	2.447	298.392	3.5147898852816883	draw_card	2.447	columbia_card_task_fmri	11.0	0.9375	89.0	-100.0	0.0625	16.0	1.0	1.0	-5.492785732255086	2.447	n/a	stim	poldrack-single-stim	s645	False	1
298.396	0.434	298.83	3.052289885281689	draw_card	0.434	columbia_card_task_fmri	11.0	0.9333333333333332	89.0	-100.0	0.0666666666666666	16.0	2.0	1.0	-4.673508198063065	0.434	n/a	stim	poldrack-single-stim	s645	False	1
298.831	0.413	299.244	2.5237184567102613	draw_card	0.413	columbia_card_task_fmri	11.0	0.9285714285714286	89.0	-100.0	0.0714285714285714	16.0	3.0	1.0	-3.775072270743113	0.413	n/a	stim	poldrack-single-stim	s645	False	1
299.247	0.402	299.649	1.913828346820151	draw_card	0.402	columbia_card_task_fmri	11.0	0.9230769230769232	89.0	-100.0	0.0769230769230769	16.0	4.0	1.0	-2.784020480764692	0.402	n/a	stim	poldrack-single-stim	s645	False	1
299.65	1.276	300.926	1.202289885281688	draw_card	1.276	columbia_card_task_fmri	11.0	0.9166666666666666	89.0	-100.0	0.0833333333333333	16.0	5.0	1.0	-1.6835214695453369	1.276	n/a	stim	poldrack-single-stim	s645	False	1
300.929	1.782	302.711	0.3613807943725964	end_round	1.782	columbia_card_task_fmri	11.0	0.9090909090909092	71.0	-100.0	0.0909090909090909	16.0	6.0	1.0	-0.4522330295601797	1.782	5.0	stim	poldrack-single-stim	s645	False	1
303.469	1.5	302.718	n/a	-1.0	2.318	columbia_card_task_fmri	n/a	n/a	-1.0	n/a	n/a	n/a	n/a	n/a	n/a	n/a	n/a	ITI	poldrack-single-stim	s645	False	0
305.041	1.817	306.858	4.077289885281688	draw_card	1.817	columbia_card_task_fmri	16.0	0.875	89.0	-75.0	0.125	16.0	1.0	2.0	-2.266784870627749	1.817	1.0	stim	poldrack-single-stim	s645	False	0
307.615	1.5	306.864	n/a	-1.0	2.25	columbia_card_task_fmri	n/a	n/a	-1.0	n/a	n/a	n/a	n/a	n/a	n/a	n/a	n/a	ITI	poldrack-single-stim	s645	False	0
309.119	1.721	310.84	4.327289885281688	draw_card	1.721	columbia_card_task_fmri	17.0	0.875	89.0	-80.0	0.125	16.0	1.0	2.0	-0.2827795991466431	1.721	n/a	stim	poldrack-single-stim	s645	False	1
310.843	0.384	311.227	3.5189565519483565	draw_card	0.384	columbia_card_task_fmri	17.0	0.8666666666666667	89.0	-80.0	0.1333333333333333	16.0	2.0	2.0	0.611018544607802	0.384	n/a	stim	poldrack-single-stim	s645	False	1
311.23	0.449	311.679	2.5951470281388342	draw_card	0.449	columbia_card_task_fmri	17.0	0.8571428571428572	89.0	-80.0	0.1428571428571428	16.0	3.0	2.0	1.5801584451596966	0.449	n/a	stim	poldrack-single-stim	s645	False	1
311.682	0.664	312.346	1.5292129622047648	draw_card	0.664	columbia_card_task_fmri	17.0	0.8461538461538461	89.0	-80.0	0.1538461538461538	16.0	4.0	2.0	2.634813587370836	0.664	n/a	stim	poldrack-single-stim	s645	False	1
312.349	2.102	314.451	0.2856232186150238	draw_card	2.102	columbia_card_task_fmri	17.0	0.8333333333333334	89.0	-80.0	0.1666666666666666	16.0	5.0	2.0	3.786725072299468	2.102	n/a	stim	poldrack-single-stim	s645	False	1
314.454	1.332	315.786	-1.1840737510819503	end_round	1.332	columbia_card_task_fmri	17.0	0.8181818181818181	71.0	-80.0	0.1818181818181818	16.0	6.0	2.0	5.04919639780141	1.332	5.0	stim	poldrack-single-stim	s645	False	1
316.544	1.5	315.793	n/a	-1.0	2.25	columbia_card_task_fmri	n/a	n/a	-1.0	n/a	n/a	n/a	n/a	n/a	n/a	n/a	n/a	ITI	poldrack-single-stim	s645	False	0
329.059	2.876	331.935	-1.381043448051644	draw_card	2.876	columbia_card_task_fmri	13.0	0.8333333333333334	89.0	-70.0	0.1666666666666666	6.0	1.0	1.0	-1.430067149375656	2.876	n/a	stim	poldrack-single-stim	s645	False	1
331.938	1.55	333.488	-4.147710114718311	end_round	1.55	columbia_card_task_fmri	13.0	0.8	71.0	-70.0	0.2	6.0	2.0	1.0	0.8373280178360716	1.55	1.0	stim	poldrack-single-stim	s645	False	1
334.242	1.5	333.491	n/a	-1.0	2.454	columbia_card_task_fmri	n/a	n/a	-1.0	n/a	n/a	n/a	n/a	n/a	n/a	n/a	n/a	ITI	poldrack-single-stim	s645	False	0
335.948	1.935	337.883	-1.381043448051644	end_round	1.935	columbia_card_task_fmri	15.0	0.8333333333333334	71.0	-80.0	0.1666666666666666	6.0	1.0	1.0	3.041456416359665	1.935	0.0	stim	poldrack-single-stim	s645	False	1
338.641	1.5	337.89	n/a	-1.0	2.454	columbia_card_task_fmri	n/a	n/a	-1.0	n/a	n/a	n/a	n/a	n/a	n/a	n/a	n/a	ITI	poldrack-single-stim	s645	False	0
340.348	4.455	344.803	0.285623218615022	end_round	4.455	columbia_card_task_fmri	16.0	0.8333333333333334	71.0	-75.0	0.1666666666666666	6.0	1.0	1.0	1.5509306192147392	4.455	0.0	stim	poldrack-single-stim	s645	False	1
345.56	1.5	344.809	n/a	-1.0	2.522	columbia_card_task_fmri	n/a	n/a	-1.0	n/a	n/a	n/a	n/a	n/a	n/a	n/a	n/a	ITI	poldrack-single-stim	s645	False	0
347.336	2.537	349.873	1.452289885281688	draw_card	2.537	columbia_card_task_fmri	21.0	0.75	89.0	-55.0	0.25	8.0	1.0	2.0	0.5463333077552264	2.537	n/a	stim	poldrack-single-stim	s645	False	1
349.877	0.139	350.016	-1.2619958290040254	draw_card	0.139	columbia_card_task_fmri	21.0	0.7142857142857143	89.0	-55.0	0.2857142857142857	8.0	2.0	2.0	1.970479228403484	0.139	2.0	stim	poldrack-single-stim	s645	False	0
350.773	1.5	350.022	n/a	-1.0	2.386	columbia_card_task_fmri	n/a	n/a	-1.0	n/a	n/a	n/a	n/a	n/a	n/a	n/a	n/a	ITI	poldrack-single-stim	s645	False	0
352.413	2.053	354.466	2.7022898852816883	draw_card	2.053	columbia_card_task_fmri	26.0	0.75	89.0	-65.0	0.25	8.0	1.0	2.0	7.040772678643265	2.053	n/a	stim	poldrack-single-stim	s645	False	1
354.47	1.189	355.659	-0.5477101147183083	draw_card	1.189	columbia_card_task_fmri	26.0	0.7142857142857143	89.0	-65.0	0.2857142857142857	8.0	2.0	2.0	8.746068494602355	1.189	2.0	stim	poldrack-single-stim	s645	False	0
356.416	1.5	355.665	n/a	-1.0	2.454	columbia_card_task_fmri	n/a	n/a	-1.0	n/a	n/a	n/a	n/a	n/a	n/a	n/a	n/a	ITI	poldrack-single-stim	s645	False	0
358.124	1.706	359.83	-2.2143767813849777	draw_card	1.706	columbia_card_task_fmri	15.0	0.7777777777777778	89.0	-60.0	0.2222222222222222	9.0	1.0	2.0	-1.1819012059436425	1.706	n/a	stim	poldrack-single-stim	s645	False	1
359.832	1.115	360.947	-4.297710114718312	draw_card	1.115	columbia_card_task_fmri	15.0	0.75	89.0	-60.0	0.25	9.0	2.0	2.0	0.1133813640232901	1.115	2.0	stim	poldrack-single-stim	s645	False	0
361.706	1.5	360.955	n/a	-1.0	2.522	columbia_card_task_fmri	n/a	n/a	-1.0	n/a	n/a	n/a	n/a	n/a	n/a	n/a	n/a	ITI	poldrack-single-stim	s645	False	0
363.482	2.952	366.434	2.1522898852816894	draw_card	2.952	columbia_card_task_fmri	13.0	0.9	89.0	-90.0	0.1	10.0	1.0	1.0	-1.4623357746602856	2.952	1.0	stim	poldrack-single-stim	s645	False	0
367.191	1.5	366.44	n/a	-1.0	2.522	columbia_card_task_fmri	n/a	n/a	-1.0	n/a	n/a	n/a	n/a	n/a	n/a	n/a	n/a	ITI	poldrack-single-stim	s645	False	0
368.966	1.737	370.703	3.4522898852816883	draw_card	1.737	columbia_card_task_fmri	15.0	0.9	89.0	-95.0	0.1	10.0	1.0	1.0	0.6373553932265921	1.737	n/a	stim	poldrack-single-stim	s645	False	1
370.707	0.502	371.209	2.230067663059465	draw_card	0.502	columbia_card_task_fmri	15.0	0.8888888888888888	89.0	-95.0	0.1111111111111111	10.0	2.0	1.0	2.20681391112943	0.502	n/a	stim	poldrack-single-stim	s645	False	1
371.212	1.65	372.862	0.7022898852816881	end_round	1.65	columbia_card_task_fmri	15.0	0.875	71.0	-95.0	0.125	10.0	3.0	1.0	4.0160138131552685	1.65	2.0	stim	poldrack-single-stim	s645	False	1
373.62	1.5	372.869	n/a	-1.0	2.59	columbia_card_task_fmri	n/a	n/a	-1.0	n/a	n/a	n/a	n/a	n/a	n/a	n/a	n/a	ITI	poldrack-single-stim	s645	False	0
375.462	2.181	377.643	-0.7477101147183112	draw_card	2.181	columbia_card_task_fmri	16.0	0.8	89.0	-65.0	0.2	10.0	1.0	2.0	0.0374395467764969	2.181	n/a	stim	poldrack-single-stim	s645	False	1
377.645	0.518	378.163	-2.54771011471831	draw_card	0.518	columbia_card_task_fmri	16.0	0.7777777777777778	89.0	-65.0	0.2222222222222222	10.0	2.0	2.0	1.312180796259426	0.518	n/a	stim	poldrack-single-stim	s645	False	1
378.167	1.075	379.242	-4.797710114718312	draw_card	1.075	columbia_card_task_fmri	16.0	0.75	89.0	-65.0	0.25	10.0	3.0	2.0	2.7111155251226364	1.075	n/a	stim	poldrack-single-stim	s645	False	1
379.245	1.133	380.378	-7.690567257575452	end_round	1.133	columbia_card_task_fmri	16.0	0.7142857142857143	71.0	-65.0	0.2857142857142857	10.0	4.0	2.0	4.228979358847958	1.133	3.0	stim	poldrack-single-stim	s645	False	1
381.136	1.5	380.385	n/a	-1.0	2.454	columbia_card_task_fmri	n/a	n/a	-1.0	n/a	n/a	n/a	n/a	n/a	n/a	n/a	n/a	ITI	poldrack-single-stim	s645	False	0
382.844	1.227	384.071	-2.047710114718312	end_round	1.227	columbia_card_task_fmri	7.0	0.9166666666666666	71.0	-95.0	0.0833333333333333	12.0	1.0	1.0	-4.170558779093277	1.227	0.0	stim	poldrack-single-stim	s645	False	1
384.828	1.5	384.077	n/a	-1.0	2.318	columbia_card_task_fmri	n/a	n/a	-1.0	n/a	n/a	n/a	n/a	n/a	n/a	n/a	n/a	ITI	poldrack-single-stim	s645	False	0
386.401	1.604	388.005	-1.381043448051644	draw_card	1.604	columbia_card_task_fmri	14.0	0.8333333333333334	89.0	-75.0	0.1666666666666666	12.0	1.0	2.0	0.8056739953906131	1.604	n/a	stim	poldrack-single-stim	s645	False	1
388.008	0.483	388.491	-2.729528296536495	draw_card	0.483	columbia_card_task_fmri	14.0	0.8181818181818181	89.0	-75.0	0.1818181818181818	12.0	2.0	2.0	1.9639998474495783	0.483	n/a	stim	poldrack-single-stim	s645	False	1
388.495	2.335	390.83	-4.347710114718311	end_round	2.335	columbia_card_task_fmri	14.0	0.8	71.0	-75.0	0.2	12.0	3.0	2.0	3.2370235005924077	2.335	2.0	stim	poldrack-single-stim	s645	False	1
391.587	1.5	390.836	n/a	-1.0	2.25	columbia_card_task_fmri	n/a	n/a	-1.0	n/a	n/a	n/a	n/a	n/a	n/a	n/a	n/a	ITI	poldrack-single-stim	s645	False	0
393.09	3.614	396.704	0.285623218615022	draw_card	3.614	columbia_card_task_fmri	15.0	0.8333333333333334	89.0	-70.0	0.1666666666666666	12.0	1.0	2.0	-0.6848252267670283	3.614	n/a	stim	poldrack-single-stim	s645	False	1
396.707	1.254	397.961	-1.002255569263769	draw_card	1.254	columbia_card_task_fmri	15.0	0.8181818181818181	89.0	-70.0	0.1818181818181818	12.0	2.0	2.0	0.4214270011094072	1.254	n/a	stim	poldrack-single-stim	s645	False	1
397.965	1.37	399.335	-2.547710114718312	draw_card	1.37	columbia_card_task_fmri	15.0	0.8	89.0	-70.0	0.2	12.0	3.0	2.0	1.6372217362701136	1.37	n/a	stim	poldrack-single-stim	s645	False	1
399.338	0.987	400.325	-4.436599003607201	end_round	0.987	columbia_card_task_fmri	15.0	0.7777777777777778	71.0	-70.0	0.2222222222222222	12.0	4.0	2.0	2.974930067341205	0.987	3.0	stim	poldrack-single-stim	s645	False	1
401.082	1.5	400.331	n/a	-1.0	2.658	columbia_card_task_fmri	n/a	n/a	-1.0	n/a	n/a	n/a	n/a	n/a	n/a	n/a	n/a	ITI	poldrack-single-stim	s645	False	0
402.994	2.108	405.102	-1.7477101147183112	draw_card	2.108	columbia_card_task_fmri	16.0	0.8	89.0	-70.0	0.2	15.0	1.0	3.0	2.037170448877383	2.108	n/a	stim	poldrack-single-stim	s645	False	1
405.106	0.696	405.802	-2.9762815432897405	draw_card	0.696	columbia_card_task_fmri	16.0	0.7857142857142857	89.0	-70.0	0.2142857142857142	15.0	2.0	3.0	2.925088428419833	0.696	n/a	stim	poldrack-single-stim	s645	False	1
405.805	0.889	406.694	-4.393863960872158	end_round	0.889	columbia_card_task_fmri	16.0	0.7692307692307692	71.0	-70.0	0.2307692307692307	15.0	3.0	3.0	3.870903601356126	0.889	2.0	stim	poldrack-single-stim	s645	False	1
407.451	1.5	406.7	n/a	-1.0	2.454	columbia_card_task_fmri	n/a	n/a	-1.0	n/a	n/a	n/a	n/a	n/a	n/a	n/a	n/a	ITI	poldrack-single-stim	s645	False	0
409.158	2.42	411.578	-1.360210114718312	draw_card	2.42	columbia_card_task_fmri	14.0	0.8125	89.0	-65.0	0.1875	16.0	1.0	3.0	-1.5276478766213015	2.42	1.0	stim	poldrack-single-stim	s645	False	0
412.335	1.5	411.584	n/a	-1.0	2.386	columbia_card_task_fmri	n/a	n/a	-1.0	n/a	n/a	n/a	n/a	n/a	n/a	n/a	n/a	ITI	poldrack-single-stim	s645	False	0
413.976	1.13	415.106	-1.610210114718312	draw_card	1.13	columbia_card_task_fmri	16.0	0.8125	89.0	-75.0	0.1875	16.0	1.0	3.0	3.155459291276479	1.13	1.0	stim	poldrack-single-stim	s645	False	0
415.863	1.5	415.112	n/a	-1.0	2.59	columbia_card_task_fmri	n/a	n/a	-1.0	n/a	n/a	n/a	n/a	n/a	n/a	n/a	n/a	ITI	poldrack-single-stim	s645	False	0
417.709	1.25	418.959	2.6522898852816894	draw_card	1.25	columbia_card_task_fmri	16.0	0.8666666666666667	89.0	-80.0	0.1333333333333333	15.0	1.0	2.0	0.2711312846182494	1.25	n/a	stim	poldrack-single-stim	s645	False	1
418.962	1.093	420.055	1.7380041709959764	draw_card	1.093	columbia_card_task_fmri	16.0	0.8571428571428572	89.0	-80.0	0.1428571428571428	15.0	2.0	2.0	1.2302773610265945	1.093	n/a	stim	poldrack-single-stim	s645	False	1
420.059	0.137	420.196	0.6830591160509181	draw_card	0.137	columbia_card_task_fmri	16.0	0.8461538461538461	89.0	-80.0	0.1538461538461538	15.0	3.0	2.0	2.2740570105322675	0.137	3.0	stim	poldrack-single-stim	s645	False	0
420.953	1.5	420.202	n/a	-1.0	2.318	columbia_card_task_fmri	n/a	n/a	-1.0	n/a	n/a	n/a	n/a	n/a	n/a	n/a	n/a	ITI	poldrack-single-stim	s645	False	0
422.525	4.071	426.596	3.5189565519483565	draw_card	4.071	columbia_card_task_fmri	17.0	0.8666666666666667	89.0	-80.0	0.1333333333333333	15.0	1.0	2.0	0.611018544607802	4.071	n/a	stim	poldrack-single-stim	s645	False	1
426.598	2.494	429.092	2.5951470281388342	draw_card	2.494	columbia_card_task_fmri	17.0	0.8571428571428572	89.0	-80.0	0.1428571428571428	15.0	2.0	2.0	1.5801584451596966	2.494	n/a	stim	poldrack-single-stim	s645	False	1
429.096	0.109	429.205	1.5292129622047648	draw_card	0.109	columbia_card_task_fmri	17.0	0.8461538461538461	89.0	-80.0	0.1538461538461538	15.0	3.0	2.0	2.634813587370836	0.109	n/a	stim	poldrack-single-stim	s645	False	1
429.208	2.396	431.604	0.2856232186150238	end_round	2.396	columbia_card_task_fmri	17.0	0.8333333333333334	71.0	-80.0	0.1666666666666666	15.0	4.0	2.0	3.786725072299468	2.396	3.0	stim	poldrack-single-stim	s645	False	1
432.361	1.5	431.61	n/a	-1.0	2.59	columbia_card_task_fmri	n/a	n/a	-1.0	n/a	n/a	n/a	n/a	n/a	n/a	n/a	n/a	ITI	poldrack-single-stim	s645	False	0
434.204	1.105	435.309	-0.5477101147183119	end_round	1.105	columbia_card_task_fmri	1.0	0.9375	71.0	-15.0	0.0625	16.0	1.0	1.0	-28.45566984102153	1.105	0.0	stim	poldrack-single-stim	s645	False	1
436.067	1.5	435.316	n/a	-1.0	2.386	columbia_card_task_fmri	n/a	n/a	-1.0	n/a	n/a	n/a	n/a	n/a	n/a	n/a	n/a	ITI	poldrack-single-stim	s645	False	0
437.708	2.093	439.801	2.5772898852816883	draw_card	2.093	columbia_card_task_fmri	10.0	0.9375	89.0	-100.0	0.0625	16.0	1.0	1.0	-5.734796458028995	2.093	n/a	stim	poldrack-single-stim	s645	False	1
439.805	0.878	440.683	2.1189565519483557	draw_card	0.878	columbia_card_task_fmri	10.0	0.9333333333333332	89.0	-100.0	0.0666666666666666	16.0	2.0	1.0	-4.922902791050877	0.878	n/a	stim	poldrack-single-stim	s645	False	1
440.687	0.151	440.838	1.5951470281388322	draw_card	0.151	columbia_card_task_fmri	10.0	0.9285714285714286	89.0	-100.0	0.0714285714285714	16.0	3.0	1.0	-4.032563961486158	0.151	n/a	stim	poldrack-single-stim	s645	False	1
440.841	5.126	445.967	0.9907514237432272	draw_card	5.126	columbia_card_task_fmri	10.0	0.9230769230769232	89.0	-100.0	0.0769230769230769	16.0	4.0	1.0	-3.050443746921914	5.126	n/a	stim	poldrack-single-stim	s645	False	1
445.971	0.881	446.852	0.285623218615022	end_round	0.881	columbia_card_task_fmri	10.0	0.9166666666666666	71.0	-100.0	0.0833333333333333	16.0	5.0	1.0	-1.9598624326332192	0.881	4.0	stim	poldrack-single-stim	s645	False	1
447.611	1.5	446.86	n/a	-1.0	2.318	columbia_card_task_fmri	n/a	n/a	-1.0	n/a	n/a	n/a	n/a	n/a	n/a	n/a	n/a	ITI	poldrack-single-stim	s645	False	0
449.183	1.825	451.008	3.2022898852816883	draw_card	1.825	columbia_card_task_fmri	15.0	0.875	89.0	-75.0	0.125	16.0	1.0	2.0	-2.5974484215224507	1.825	n/a	stim	poldrack-single-stim	s645	False	1
451.011	0.369	451.38	2.4522898852816883	draw_card	0.369	columbia_card_task_fmri	15.0	0.8666666666666667	89.0	-75.0	0.1333333333333333	16.0	2.0	2.0	-1.7681701724099987	0.369	n/a	stim	poldrack-single-stim	s645	False	1
451.383	0.679	452.062	1.5951470281388322	draw_card	0.679	columbia_card_task_fmri	15.0	0.8571428571428572	89.0	-75.0	0.1428571428571428	16.0	3.0	2.0	-0.8689876715004985	0.679	n/a	stim	poldrack-single-stim	s645	False	1
452.065	1.071	453.136	0.6061360391278414	draw_card	1.071	columbia_card_task_fmri	15.0	0.8461538461538461	89.0	-75.0	0.1538461538461538	16.0	4.0	2.0	0.1095383751361538	1.071	n/a	stim	poldrack-single-stim	s645	False	1
453.14	1.233	454.373	-0.5477101147183119	end_round	1.233	columbia_card_task_fmri	15.0	0.8333333333333334	71.0	-75.0	0.1666666666666666	16.0	5.0	2.0	1.1783017553648705	1.233	4.0	stim	poldrack-single-stim	s645	False	1
455.13	1.5	454.379	n/a	-1.0	2.318	columbia_card_task_fmri	n/a	n/a	-1.0	n/a	n/a	n/a	n/a	n/a	n/a	n/a	n/a	ITI	poldrack-single-stim	s645	False	0
456.704	2.215	458.919	3.4522898852816883	draw_card	2.215	columbia_card_task_fmri	16.0	0.875	89.0	-80.0	0.125	16.0	1.0	2.0	-0.6134498192374096	2.215	n/a	stim	poldrack-single-stim	s645	False	1
458.923	0.443	459.366	2.6522898852816894	draw_card	0.443	columbia_card_task_fmri	16.0	0.8666666666666667	89.0	-80.0	0.1333333333333333	16.0	2.0	2.0	0.2711312846182494	0.443	n/a	stim	poldrack-single-stim	s645	False	1
459.369	0.673	460.042	1.7380041709959764	end_round	0.673	columbia_card_task_fmri	16.0	0.8571428571428572	71.0	-80.0	0.1428571428571428	16.0	3.0	2.0	1.2302773610265945	0.673	2.0	stim	poldrack-single-stim	s645	False	1
460.801	1.5	460.05	n/a	-1.0	2.318	columbia_card_task_fmri	n/a	n/a	-1.0	n/a	n/a	n/a	n/a	n/a	n/a	n/a	n/a	ITI	poldrack-single-stim	s645	False	0
462.374	2.674	465.048	0.6397898852816881	draw_card	2.674	columbia_card_task_fmri	4.0	0.6875	89.0	-5.0	0.3125	16.0	1.0	5.0	-28.15977583269509	2.674	1.0	stim	poldrack-single-stim	s645	False	0
465.806	1.5	465.055	n/a	-1.0	2.386	columbia_card_task_fmri	n/a	n/a	-1.0	n/a	n/a	n/a	n/a	n/a	n/a	n/a	n/a	ITI	poldrack-single-stim	s645	False	0
467.446	3.95	471.396	-2.214376781384976	end_round	3.95	columbia_card_task_fmri	14.0	0.8333333333333334	71.0	-80.0	0.1666666666666666	6.0	1.0	1.0	2.6688234818063705	3.95	0.0	stim	poldrack-single-stim	s645	False	1
472.153	1.5	471.402	n/a	-1.0	2.25	columbia_card_task_fmri	n/a	n/a	-1.0	n/a	n/a	n/a	n/a	n/a	n/a	n/a	n/a	ITI	poldrack-single-stim	s645	False	0
473.657	2.486	476.143	-0.5477101147183119	end_round	2.486	columbia_card_task_fmri	15.0	0.8333333333333334	71.0	-75.0	0.1666666666666666	6.0	1.0	1.0	1.1783017553648705	2.486	0.0	stim	poldrack-single-stim	s645	False	1
476.902	1.5	476.151	n/a	-1.0	2.386	columbia_card_task_fmri	n/a	n/a	-1.0	n/a	n/a	n/a	n/a	n/a	n/a	n/a	n/a	ITI	poldrack-single-stim	s645	False	0
478.543	4.628	483.171	1.118956551948356	draw_card	4.628	columbia_card_task_fmri	16.0	0.8333333333333334	89.0	-70.0	0.1666666666666666	6.0	1.0	1.0	-0.3122022763141956	4.628	1.0	stim	poldrack-single-stim	s645	False	0
483.929	1.5	483.178	n/a	-1.0	2.59	columbia_card_task_fmri	n/a	n/a	-1.0	n/a	n/a	n/a	n/a	n/a	n/a	n/a	n/a	ITI	poldrack-single-stim	s645	False	0
485.774	1.188	486.962	1.702289885281688	draw_card	1.188	columbia_card_task_fmri	23.0	0.75	89.0	-60.0	0.25	8.0	1.0	2.0	3.577037899724587	1.188	n/a	stim	poldrack-single-stim	s645	False	1
486.965	1.512	488.477	-1.2619958290040236	draw_card	1.512	columbia_card_task_fmri	23.0	0.7142857142857143	89.0	-60.0	0.2857142857142857	8.0	2.0	2.0	5.132388505358264	1.512	2.0	stim	poldrack-single-stim	s645	False	0
489.235	1.5	488.484	n/a	-1.0	2.658	columbia_card_task_fmri	n/a	n/a	-1.0	n/a	n/a	n/a	n/a	n/a	n/a	n/a	n/a	ITI	poldrack-single-stim	s645	False	0
491.147	1.322	492.469	2.2022898852816883	draw_card	1.322	columbia_card_task_fmri	27.0	0.75	89.0	-70.0	0.25	8.0	1.0	2.0	9.638613466448277	1.322	n/a	stim	poldrack-single-stim	s645	False	1
492.472	0.655	493.127	-1.2619958290040272	draw_card	0.655	columbia_card_task_fmri	27.0	0.7142857142857143	89.0	-70.0	0.2857142857142857	8.0	2.0	2.0	11.456366543943735	0.655	2.0	stim	poldrack-single-stim	s645	False	0
493.887	1.5	493.136	n/a	-1.0	2.386	columbia_card_task_fmri	n/a	n/a	-1.0	n/a	n/a	n/a	n/a	n/a	n/a	n/a	n/a	ITI	poldrack-single-stim	s645	False	0
495.527	0.993	496.52	-2.54771011471831	draw_card	0.993	columbia_card_task_fmri	16.0	0.7777777777777778	89.0	-65.0	0.2222222222222222	9.0	1.0	2.0	1.312180796259426	0.993	1.0	stim	poldrack-single-stim	s645	False	0
497.277	1.5	496.526	n/a	-1.0	2.386	columbia_card_task_fmri	n/a	n/a	-1.0	n/a	n/a	n/a	n/a	n/a	n/a	n/a	n/a	ITI	poldrack-single-stim	s645	False	0
498.918	1.073	499.991	2.6522898852816894	end_round	1.073	columbia_card_task_fmri	13.0	0.9	71.0	-85.0	0.1	10.0	1.0	1.0	-2.962088175398261	1.073	0.0	stim	poldrack-single-stim	s645	False	1
500.749	1.5	499.998	n/a	-1.0	2.25	columbia_card_task_fmri	n/a	n/a	-1.0	n/a	n/a	n/a	n/a	n/a	n/a	n/a	n/a	ITI	poldrack-single-stim	s645	False	0
502.253	1.532	503.785	-2.3477101147183106	end_round	1.532	columbia_card_task_fmri	14.0	0.8	71.0	-65.0	0.2	10.0	1.0	2.0	-0.7624432784892221	1.532	0.0	stim	poldrack-single-stim	s645	False	1
504.542	1.5	503.791	n/a	-1.0	2.318	columbia_card_task_fmri	n/a	n/a	-1.0	n/a	n/a	n/a	n/a	n/a	n/a	n/a	n/a	ITI	poldrack-single-stim	s645	False	0
506.114	1.234	507.348	-0.9477101147183103	draw_card	1.234	columbia_card_task_fmri	17.0	0.8	89.0	-70.0	0.2	10.0	1.0	2.0	2.4371203402836272	1.234	1.0	stim	poldrack-single-stim	s645	False	0
508.107	1.5	507.356	n/a	-1.0	2.25	columbia_card_task_fmri	n/a	n/a	-1.0	n/a	n/a	n/a	n/a	n/a	n/a	n/a	n/a	ITI	poldrack-single-stim	s645	False	0
509.612	1.166	510.778	-2.2143767813849777	end_round	1.166	columbia_card_task_fmri	13.0	0.8333333333333334	71.0	-75.0	0.1666666666666666	12.0	1.0	2.0	0.4330473769137839	1.166	0.0	stim	poldrack-single-stim	s645	False	1
511.535	1.5	510.784	n/a	-1.0	2.25	columbia_card_task_fmri	n/a	n/a	-1.0	n/a	n/a	n/a	n/a	n/a	n/a	n/a	n/a	ITI	poldrack-single-stim	s645	False	0
513.04	1.211	514.251	-0.5477101147183101	draw_card	1.211	columbia_card_task_fmri	14.0	0.8333333333333334	89.0	-70.0	0.1666666666666666	12.0	1.0	2.0	-1.0574468669029358	1.211	n/a	stim	poldrack-single-stim	s645	False	1
514.255	2.146	516.401	-1.820437387445587	draw_card	2.146	columbia_card_task_fmri	14.0	0.8181818181818181	89.0	-70.0	0.1818181818181818	12.0	2.0	2.0	0.0357868481892609	2.146	2.0	stim	poldrack-single-stim	s645	False	0
517.159	1.5	516.408	n/a	-1.0	2.386	columbia_card_task_fmri	n/a	n/a	-1.0	n/a	n/a	n/a	n/a	n/a	n/a	n/a	n/a	ITI	poldrack-single-stim	s645	False	0
518.8	1.376	520.176	-0.5477101147183101	draw_card	1.376	columbia_card_task_fmri	16.0	0.8333333333333334	89.0	-80.0	0.1666666666666666	12.0	1.0	2.0	3.414090289531593	1.376	1.0	stim	poldrack-single-stim	s645	False	0
520.934	1.5	520.183	n/a	-1.0	2.386	columbia_card_task_fmri	n/a	n/a	-1.0	n/a	n/a	n/a	n/a	n/a	n/a	n/a	n/a	ITI	poldrack-single-stim	s645	False	0
522.574	1.619	524.193	-0.7477101147183112	draw_card	1.619	columbia_card_task_fmri	16.0	0.8	89.0	-65.0	0.2	15.0	1.0	3.0	0.0374395467764969	1.619	n/a	stim	poldrack-single-stim	s645	False	1
524.197	0.71	524.907	-1.904852971861168	draw_card	0.71	columbia_card_task_fmri	16.0	0.7857142857142857	89.0	-65.0	0.2142857142857142	15.0	2.0	3.0	0.8737212404497043	0.71	2.0	stim	poldrack-single-stim	s645	False	0
525.667	1.5	524.916	n/a	-1.0	2.726	columbia_card_task_fmri	n/a	n/a	-1.0	n/a	n/a	n/a	n/a	n/a	n/a	n/a	n/a	ITI	poldrack-single-stim	s645	False	0
527.647	1.095	528.742	-2.422710114718312	draw_card	1.095	columbia_card_task_fmri	15.0	0.8125	89.0	-75.0	0.1875	16.0	1.0	3.0	2.765193829785936	1.095	n/a	stim	poldrack-single-stim	s645	False	1
528.747	0.973	529.72	-3.547710114718312	draw_card	0.973	columbia_card_task_fmri	15.0	0.8	89.0	-75.0	0.2	16.0	2.0	3.0	3.636976694457253	0.973	n/a	stim	poldrack-single-stim	s645	False	1
529.723	1.287	531.01	-4.833424400432596	draw_card	1.287	columbia_card_task_fmri	15.0	0.7857142857142857	89.0	-75.0	0.2142857142857142	16.0	3.0	3.0	4.5662031614446335	1.287	n/a	stim	poldrack-single-stim	s645	False	1
531.014	1.075	532.089	-6.316940883949085	end_round	1.075	columbia_card_task_fmri	15.0	0.7692307692307692	71.0	-75.0	0.2307692307692307	16.0	4.0	3.0	5.556019827307488	1.075	3.0	stim	poldrack-single-stim	s645	False	1
532.847	1.5	532.096	n/a	-1.0	2.454	columbia_card_task_fmri	n/a	n/a	-1.0	n/a	n/a	n/a	n/a	n/a	n/a	n/a	n/a	ITI	poldrack-single-stim	s645	False	0
534.556	2.029	536.585	-1.860210114718312	draw_card	2.029	columbia_card_task_fmri	14.0	0.6875	89.0	-35.0	0.3125	16.0	1.0	5.0	-9.648478528217376	2.029	1.0	stim	poldrack-single-stim	s645	False	0
537.342	1.5	536.591	n/a	-1.0	2.318	columbia_card_task_fmri	n/a	n/a	-1.0	n/a	n/a	n/a	n/a	n/a	n/a	n/a	n/a	ITI	poldrack-single-stim	s645	False	0
538.916	1.509	540.425	3.3189565519483555	draw_card	1.509	columbia_card_task_fmri	16.0	0.8666666666666667	89.0	-75.0	0.1333333333333333	15.0	1.0	2.0	-1.428289400976574	1.509	n/a	stim	poldrack-single-stim	s645	False	1
540.429	0.488	540.917	2.45228988528169	draw_card	0.488	columbia_card_task_fmri	16.0	0.8571428571428572	89.0	-75.0	0.1428571428571428	15.0	2.0	2.0	-0.5191128907957108	0.488	n/a	stim	poldrack-single-stim	s645	False	1
540.92	0.855	541.775	1.452289885281688	end_round	0.855	columbia_card_task_fmri	16.0	0.8461538461538461	71.0	-75.0	0.1538461538461538	15.0	3.0	2.0	0.4702888383709975	0.855	2.0	stim	poldrack-single-stim	s645	False	1
542.534	1.5	541.783	n/a	-1.0	2.318	columbia_card_task_fmri	n/a	n/a	-1.0	n/a	n/a	n/a	n/a	n/a	n/a	n/a	n/a	ITI	poldrack-single-stim	s645	False	0
544.106	3.055	547.161	3.9856232186150216	draw_card	3.055	columbia_card_task_fmri	16.0	0.8666666666666667	89.0	-70.0	0.1333333333333333	15.0	1.0	2.0	-3.127680735097073	3.055	n/a	stim	poldrack-single-stim	s645	False	1
547.164	0.651	547.815	3.166575599567404	draw_card	0.651	columbia_card_task_fmri	16.0	0.8571428571428572	89.0	-70.0	0.1428571428571428	15.0	2.0	2.0	-2.2684746285424424	0.651	n/a	stim	poldrack-single-stim	s645	False	1
547.819	0.791	548.61	2.2215206545124566	draw_card	0.791	columbia_card_task_fmri	16.0	0.8461538461538461	89.0	-70.0	0.1538461538461538	15.0	3.0	2.0	-1.3334516783622838	0.791	n/a	stim	poldrack-single-stim	s645	False	1
548.614	1.597	550.211	1.118956551948356	end_round	1.597	columbia_card_task_fmri	16.0	0.8333333333333334	71.0	-70.0	0.1666666666666666	15.0	4.0	2.0	-0.3122022763141956	1.597	3.0	stim	poldrack-single-stim	s645	False	1
550.97	1.5	550.219	n/a	-1.0	2.59	columbia_card_task_fmri	n/a	n/a	-1.0	n/a	n/a	n/a	n/a	n/a	n/a	n/a	n/a	ITI	poldrack-single-stim	s645	False	0
552.815	1.579	554.394	1.327289885281688	end_round	1.579	columbia_card_task_fmri	8.0	0.9375	71.0	-90.0	0.0625	16.0	1.0	1.0	-8.638844437924082	1.579	0.0	stim	poldrack-single-stim	s645	False	1
555.153	1.5	554.402	n/a	-1.0	2.726	columbia_card_task_fmri	n/a	n/a	-1.0	n/a	n/a	n/a	n/a	n/a	n/a	n/a	n/a	ITI	poldrack-single-stim	s645	False	0
557.133	1.974	559.107	2.8897898852816883	draw_card	1.974	columbia_card_task_fmri	10.0	0.9375	89.0	-95.0	0.0625	16.0	1.0	1.0	-6.944835596530659	1.974	n/a	stim	poldrack-single-stim	s645	False	1
559.112	1.55	560.662	2.452289885281689	draw_card	1.55	columbia_card_task_fmri	10.0	0.9333333333333332	89.0	-95.0	0.0666666666666666	16.0	2.0	1.0	-6.1698616939351645	1.55	n/a	stim	poldrack-single-stim	s645	False	1
560.666	1.413	562.079	1.952289885281689	draw_card	1.413	columbia_card_task_fmri	10.0	0.9285714285714286	89.0	-95.0	0.0714285714285714	16.0	3.0	1.0	-5.320008794659756	1.413	n/a	stim	poldrack-single-stim	s645	False	1
562.084	1.355	563.439	1.3753668083586117	draw_card	1.355	columbia_card_task_fmri	10.0	0.9230769230769232	89.0	-95.0	0.0769230769230769	16.0	4.0	1.0	-4.382546913122038	1.355	n/a	stim	poldrack-single-stim	s645	False	1
563.443	1.615	565.058	0.7022898852816881	end_round	1.615	columbia_card_task_fmri	10.0	0.9166666666666666	71.0	-95.0	0.0833333333333333	16.0	5.0	1.0	-3.3415545553198704	1.615	4.0	stim	poldrack-single-stim	s645	False	1
565.816	1.5	565.065	n/a	-1.0	2.522	columbia_card_task_fmri	n/a	n/a	-1.0	n/a	n/a	n/a	n/a	n/a	n/a	n/a	n/a	ITI	poldrack-single-stim	s645	False	0
567.593	1.845	569.438	3.827289885281688	draw_card	1.845	columbia_card_task_fmri	15.0	0.875	89.0	-70.0	0.125	16.0	1.0	2.0	-4.250746641453894	1.845	n/a	stim	poldrack-single-stim	s645	False	1
569.442	0.476	569.918	3.1189565519483544	draw_card	0.476	columbia_card_task_fmri	15.0	0.8666666666666667	89.0	-70.0	0.1333333333333333	16.0	2.0	2.0	-3.467555024088977	0.476	n/a	stim	poldrack-single-stim	s645	False	1
569.922	1.391	571.313	2.309432742424546	end_round	1.391	columbia_card_task_fmri	15.0	0.8571428571428572	71.0	-70.0	0.1428571428571428	16.0	3.0	2.0	-2.6183431117387954	1.391	2.0	stim	poldrack-single-stim	s645	False	1
572.072	1.5	571.321	n/a	-1.0	3.134	columbia_card_task_fmri	n/a	n/a	-1.0	n/a	n/a	n/a	n/a	n/a	n/a	n/a	n/a	ITI	poldrack-single-stim	s645	False	0
574.461	1.737	576.198	2.8272898852816883	draw_card	1.737	columbia_card_task_fmri	16.0	0.875	89.0	-85.0	0.125	16.0	1.0	2.0	1.0399109215471611	1.737	n/a	stim	poldrack-single-stim	s645	False	1
576.202	0.12	576.322	1.9856232186150211	draw_card	0.12	columbia_card_task_fmri	16.0	0.8666666666666667	89.0	-85.0	0.1333333333333333	16.0	2.0	2.0	1.9705769637598536	0.12	n/a	stim	poldrack-single-stim	s645	False	1
576.326	2.553	578.879	1.023718456710261	end_round	2.553	columbia_card_task_fmri	16.0	0.8571428571428572	71.0	-85.0	0.1428571428571428	16.0	3.0	2.0	2.9796918932630376	2.553	2.0	stim	poldrack-single-stim	s645	False	1
579.638	1.5	578.887	n/a	-1.0	2.386	columbia_card_task_fmri	n/a	n/a	-1.0	n/a	n/a	n/a	n/a	n/a	n/a	n/a	n/a	ITI	poldrack-single-stim	s645	False	0
