onset	duration	movement_onset	EV	action	block_duration	experiment_exp_id	gain_amount	gain_probability	key_press	loss_amount	loss_probability	num_cards	num_click_in_round	num_loss_cards	risk	response_time	total_cards	trial_id	trial_type	worker_id	junk	feedback
3.015	4.056	7.071	-0.534176579793463	draw_card	4.056	columbia_card_task_fmri	12.0	0.8333333333333334	89.0	-70.0	0.1666666666666666	6.0	1.0	1.0	-1.3218491294929358	4.056	1.0	stim	poldrack-single-stim	s646	False	0
7.83	1.5	7.079	n/a	-1.0	2.25	columbia_card_task_fmri	n/a	n/a	-1.0	n/a	n/a	n/a	n/a	n/a	n/a	n/a	n/a	ITI	poldrack-single-stim	s646	False	0
9.332	0.931	10.263	0.2991567535398709	draw_card	0.931	columbia_card_task_fmri	14.0	0.8333333333333334	89.0	-75.0	0.1666666666666666	6.0	1.0	1.0	1.2852479741977376	0.931	n/a	stim	poldrack-single-stim	s646	False	1
10.265	2.082	12.347	-2.667509913126796	draw_card	2.082	columbia_card_task_fmri	14.0	0.8	89.0	-75.0	0.2	6.0	2.0	1.0	3.715586795720213	2.082	n/a	stim	poldrack-single-stim	s646	False	1
12.349	1.177	13.526	-7.117509913126797	end_round	1.177	columbia_card_task_fmri	14.0	0.75	71.0	-75.0	0.25	6.0	3.0	1.0	6.65234491610439	1.177	2.0	stim	poldrack-single-stim	s646	False	1
14.283	1.5	13.532	n/a	-1.0	2.386	columbia_card_task_fmri	n/a	n/a	-1.0	n/a	n/a	n/a	n/a	n/a	n/a	n/a	n/a	ITI	poldrack-single-stim	s646	False	0
15.921	0.889	16.81	1.965823420206537	draw_card	0.889	columbia_card_task_fmri	15.0	0.8333333333333334	89.0	-70.0	0.1666666666666666	6.0	1.0	1.0	-0.2045550221110659	0.889	n/a	stim	poldrack-single-stim	s646	False	1
16.815	1.524	18.339	-0.8675099131267969	draw_card	1.524	columbia_card_task_fmri	15.0	0.8	89.0	-70.0	0.2	6.0	2.0	1.0	2.116433798201733	1.524	n/a	stim	poldrack-single-stim	s646	False	1
18.34	1.012	19.352	-5.117509913126797	draw_card	1.012	columbia_card_task_fmri	15.0	0.75	89.0	-70.0	0.25	6.0	3.0	1.0	4.921076627096205	1.012	n/a	stim	poldrack-single-stim	s646	False	1
19.355	0.837	20.192	-12.200843246460128	end_round	0.837	columbia_card_task_fmri	15.0	0.6666666666666667	71.0	-70.0	0.3333333333333333	6.0	4.0	1.0	8.182963219947354	0.837	3.0	stim	poldrack-single-stim	s646	False	1
20.948	1.5	20.197	n/a	-1.0	2.59	columbia_card_task_fmri	n/a	n/a	-1.0	n/a	n/a	n/a	n/a	n/a	n/a	n/a	n/a	ITI	poldrack-single-stim	s646	False	0
22.79	2.017	24.807	2.799156753539871	draw_card	2.017	columbia_card_task_fmri	17.0	0.8333333333333334	89.0	-75.0	0.1666666666666666	6.0	1.0	1.0	2.402652049026635	2.017	n/a	stim	poldrack-single-stim	s646	False	1
24.809	1.375	26.184	-0.2675099131267955	draw_card	1.375	columbia_card_task_fmri	17.0	0.8	89.0	-75.0	0.2	6.0	2.0	1.0	4.914999842612687	1.375	n/a	stim	poldrack-single-stim	s646	False	1
26.186	1.197	27.383	-4.867509913126797	draw_card	1.197	columbia_card_task_fmri	17.0	0.75	89.0	-75.0	0.25	6.0	3.0	1.0	7.950840759361306	1.197	n/a	stim	poldrack-single-stim	s646	False	1
27.385	1.685	29.07	-12.534176579793463	draw_card	1.685	columbia_card_task_fmri	17.0	0.6666666666666667	89.0	-75.0	0.3333333333333333	6.0	4.0	1.0	11.481577851540507	1.685	4.0	stim	poldrack-single-stim	s646	False	0
29.826	1.5	29.075	n/a	-1.0	2.658	columbia_card_task_fmri	n/a	n/a	-1.0	n/a	n/a	n/a	n/a	n/a	n/a	n/a	n/a	ITI	poldrack-single-stim	s646	False	0
31.736	1.844	33.58	4.132490086873203	draw_card	1.844	columbia_card_task_fmri	24.0	0.75	89.0	-60.0	0.25	8.0	1.0	2.0	4.488271191198159	1.844	n/a	stim	poldrack-single-stim	s646	False	1
33.582	1.377	34.959	1.132490086873203	draw_card	1.377	columbia_card_task_fmri	24.0	0.7142857142857143	89.0	-60.0	0.2857142857142857	8.0	2.0	2.0	6.0618052630039045	1.377	n/a	stim	poldrack-single-stim	s646	False	1
34.96	1.545	36.505	-2.867509913126797	draw_card	1.545	columbia_card_task_fmri	24.0	0.6666666666666667	89.0	-60.0	0.3333333333333333	8.0	3.0	2.0	7.711749106487744	1.545	n/a	stim	poldrack-single-stim	s646	False	1
36.508	1.551	38.059	-8.467509913126799	end_round	1.551	columbia_card_task_fmri	24.0	0.6	71.0	-60.0	0.4	8.0	4.0	2.0	9.264586066963446	1.551	3.0	stim	poldrack-single-stim	s646	False	1
38.812	1.5	38.061	n/a	-1.0	2.386	columbia_card_task_fmri	n/a	n/a	-1.0	n/a	n/a	n/a	n/a	n/a	n/a	n/a	n/a	ITI	poldrack-single-stim	s646	False	0
40.449	3.387	43.836	4.132490086873203	draw_card	3.387	columbia_card_task_fmri	29.0	0.75	89.0	-75.0	0.25	8.0	1.0	2.0	13.145136813026369	3.387	1.0	stim	poldrack-single-stim	s646	False	0
44.593	1.5	43.842	n/a	-1.0	2.386	columbia_card_task_fmri	n/a	n/a	-1.0	n/a	n/a	n/a	n/a	n/a	n/a	n/a	n/a	ITI	poldrack-single-stim	s646	False	0
46.23	1.773	48.003	-0.0897321353490165	draw_card	1.773	columbia_card_task_fmri	17.0	0.7777777777777778	89.0	-65.0	0.2222222222222222	9.0	1.0	2.0	2.207039874495905	1.773	n/a	stim	poldrack-single-stim	s646	False	1
48.006	2.175	50.181	-2.367509913126797	draw_card	2.175	columbia_card_task_fmri	17.0	0.75	89.0	-65.0	0.25	9.0	2.0	2.0	3.622675473873926	2.175	n/a	stim	poldrack-single-stim	s646	False	1
50.183	2.697	52.88	-5.296081341698224	draw_card	2.697	columbia_card_task_fmri	17.0	0.7142857142857143	89.0	-65.0	0.2857142857142857	9.0	3.0	2.0	5.158709245698077	2.697	n/a	stim	poldrack-single-stim	s646	False	1
52.882	2.315	55.197	-9.200843246460128	draw_card	2.315	columbia_card_task_fmri	17.0	0.6666666666666667	89.0	-65.0	0.3333333333333333	9.0	4.0	2.0	6.769334803026915	2.315	n/a	stim	poldrack-single-stim	s646	False	1
55.199	2.476	57.675	-14.667509913126798	draw_card	2.476	columbia_card_task_fmri	17.0	0.6	89.0	-65.0	0.4	9.0	5.0	2.0	8.285170024456441	2.476	5.0	stim	poldrack-single-stim	s646	False	0
58.43	1.5	57.679	n/a	-1.0	2.25	columbia_card_task_fmri	n/a	n/a	-1.0	n/a	n/a	n/a	n/a	n/a	n/a	n/a	n/a	ITI	poldrack-single-stim	s646	False	0
59.932	2.033	61.965	4.232490086873202	draw_card	2.033	columbia_card_task_fmri	14.0	0.9	89.0	-95.0	0.1	10.0	1.0	1.0	0.8171829671589279	2.033	n/a	stim	poldrack-single-stim	s646	False	1
61.967	3.109	65.076	3.0213789757620906	draw_card	3.109	columbia_card_task_fmri	14.0	0.8888888888888888	89.0	-95.0	0.1111111111111111	10.0	2.0	1.0	2.371688472840773	3.109	n/a	stim	poldrack-single-stim	s646	False	1
65.078	2.675	67.753	1.507490086873203	draw_card	2.675	columbia_card_task_fmri	14.0	0.875	89.0	-95.0	0.125	10.0	3.0	1.0	4.163724533599392	2.675	n/a	stim	poldrack-single-stim	s646	False	1
67.755	2.733	70.488	-0.4389384845553681	draw_card	2.733	columbia_card_task_fmri	14.0	0.8571428571428572	89.0	-95.0	0.1428571428571428	10.0	4.0	1.0	6.256441692454068	2.733	n/a	stim	poldrack-single-stim	s646	False	1
70.49	3.687	74.177	-3.034176579793461	draw_card	3.687	columbia_card_task_fmri	14.0	0.8333333333333334	89.0	-95.0	0.1666666666666666	10.0	5.0	1.0	8.73526299588805	3.687	n/a	stim	poldrack-single-stim	s646	False	1
74.18	0.874	75.054	-6.667509913126796	end_round	0.874	columbia_card_task_fmri	14.0	0.8	71.0	-95.0	0.2	10.0	6.0	1.0	11.712283711929716	0.874	5.0	stim	poldrack-single-stim	s646	False	1
75.807	1.5	75.056	n/a	-1.0	2.318	columbia_card_task_fmri	n/a	n/a	-1.0	n/a	n/a	n/a	n/a	n/a	n/a	n/a	n/a	ITI	poldrack-single-stim	s646	False	0
77.378	3.39	80.768	0.132490086873203	draw_card	3.39	columbia_card_task_fmri	15.0	0.8	89.0	-65.0	0.2	10.0	1.0	2.0	0.1176115552205772	3.39	n/a	stim	poldrack-single-stim	s646	False	1
80.77	2.519	83.289	-1.6452876909045735	draw_card	2.519	columbia_card_task_fmri	15.0	0.7777777777777778	89.0	-65.0	0.2222222222222222	10.0	2.0	2.0	1.3760303224308927	2.519	2.0	stim	poldrack-single-stim	s646	False	0
84.045	1.5	83.294	n/a	-1.0	2.25	columbia_card_task_fmri	n/a	n/a	-1.0	n/a	n/a	n/a	n/a	n/a	n/a	n/a	n/a	ITI	poldrack-single-stim	s646	False	0
85.548	2.147	87.695	1.7324900868732045	draw_card	2.147	columbia_card_task_fmri	17.0	0.8	89.0	-65.0	0.2	10.0	1.0	2.0	0.917123232284986	2.147	n/a	stim	poldrack-single-stim	s646	False	1
87.697	2.384	90.081	-0.0897321353490165	draw_card	2.384	columbia_card_task_fmri	17.0	0.7777777777777778	89.0	-65.0	0.2222222222222222	10.0	2.0	2.0	2.207039874495905	2.384	n/a	stim	poldrack-single-stim	s646	False	1
90.083	2.501	92.584	-2.367509913126797	draw_card	2.501	columbia_card_task_fmri	17.0	0.75	89.0	-65.0	0.25	10.0	3.0	2.0	3.622675473873926	2.501	n/a	stim	poldrack-single-stim	s646	False	1
92.587	2.236	94.823	-5.296081341698224	draw_card	2.236	columbia_card_task_fmri	17.0	0.7142857142857143	89.0	-65.0	0.2857142857142857	10.0	4.0	2.0	5.158709245698077	2.236	4.0	stim	poldrack-single-stim	s646	False	0
95.581	1.5	94.83	n/a	-1.0	2.25	columbia_card_task_fmri	n/a	n/a	-1.0	n/a	n/a	n/a	n/a	n/a	n/a	n/a	n/a	ITI	poldrack-single-stim	s646	False	0
97.083	1.743	98.826	0.2991567535398709	draw_card	1.743	columbia_card_task_fmri	13.0	0.8333333333333334	89.0	-70.0	0.1666666666666666	12.0	1.0	2.0	-0.9494236972432546	1.743	1.0	stim	poldrack-single-stim	s646	False	0
99.583	1.5	98.832	n/a	-1.0	2.386	columbia_card_task_fmri	n/a	n/a	-1.0	n/a	n/a	n/a	n/a	n/a	n/a	n/a	n/a	ITI	poldrack-single-stim	s646	False	0
101.222	1.357	102.579	0.2991567535398709	draw_card	1.357	columbia_card_task_fmri	15.0	0.8333333333333334	89.0	-80.0	0.1666666666666666	12.0	1.0	2.0	3.520095876375663	1.357	n/a	stim	poldrack-single-stim	s646	False	1
102.581	2.79	105.371	-1.140237185854072	draw_card	2.79	columbia_card_task_fmri	15.0	0.8181818181818181	89.0	-80.0	0.1818181818181818	12.0	2.0	2.0	4.756063164189655	2.79	n/a	stim	poldrack-single-stim	s646	False	1
105.373	2.276	107.649	-2.867509913126797	draw_card	2.276	columbia_card_task_fmri	15.0	0.8	89.0	-80.0	0.2	12.0	3.0	2.0	6.114449934731866	2.276	n/a	stim	poldrack-single-stim	s646	False	1
107.651	2.327	109.978	-4.97862102423791	draw_card	2.327	columbia_card_task_fmri	15.0	0.7777777777777778	89.0	-80.0	0.2222222222222222	12.0	4.0	2.0	7.60908386367992	2.327	n/a	stim	poldrack-single-stim	s646	False	1
109.981	3.367	113.348	-7.617509913126797	draw_card	3.367	columbia_card_task_fmri	15.0	0.75	89.0	-80.0	0.25	12.0	5.0	2.0	9.249370830668605	3.367	n/a	stim	poldrack-single-stim	s646	False	1
113.351	1.269	114.62	-11.010367055983936	end_round	1.269	columbia_card_task_fmri	15.0	0.7142857142857143	71.0	-80.0	0.2857142857142857	12.0	6.0	2.0	11.0291431789027	1.269	5.0	stim	poldrack-single-stim	s646	False	1
115.376	1.5	114.625	n/a	-1.0	2.386	columbia_card_task_fmri	n/a	n/a	-1.0	n/a	n/a	n/a	n/a	n/a	n/a	n/a	n/a	ITI	poldrack-single-stim	s646	False	0
117.014	3.903	120.917	-0.6675099131267959	draw_card	3.903	columbia_card_task_fmri	14.0	0.8	89.0	-65.0	0.2	15.0	1.0	3.0	-0.2821350201324435	3.903	n/a	stim	poldrack-single-stim	s646	False	1
120.919	2.105	123.024	-1.796081341698224	draw_card	2.105	columbia_card_task_fmri	14.0	0.7857142857142857	89.0	-65.0	0.2142857142857142	15.0	2.0	3.0	0.5331011392686804	2.105	n/a	stim	poldrack-single-stim	s646	False	1
123.027	3.256	126.283	-3.0982791438960287	draw_card	3.256	columbia_card_task_fmri	14.0	0.7692307692307692	89.0	-65.0	0.2307692307692307	15.0	3.0	3.0	1.401517286026575	3.256	3.0	stim	poldrack-single-stim	s646	False	0
127.04	1.5	126.289	n/a	-1.0	2.726	columbia_card_task_fmri	n/a	n/a	-1.0	n/a	n/a	n/a	n/a	n/a	n/a	n/a	n/a	ITI	poldrack-single-stim	s646	False	0
129.018	1.506	130.524	-0.7425099131267969	draw_card	1.506	columbia_card_task_fmri	1.0	0.9375	89.0	-45.0	0.0625	16.0	1.0	1.0	-20.710151717875465	1.506	n/a	stim	poldrack-single-stim	s646	False	1
130.526	2.138	132.664	-0.9341765797934634	draw_card	2.138	columbia_card_task_fmri	1.0	0.9333333333333332	89.0	-45.0	0.0666666666666666	16.0	2.0	1.0	-20.37225454893968	2.138	2.0	stim	poldrack-single-stim	s646	False	0
133.422	1.5	132.671	n/a	-1.0	2.454	columbia_card_task_fmri	n/a	n/a	-1.0	n/a	n/a	n/a	n/a	n/a	n/a	n/a	n/a	ITI	poldrack-single-stim	s646	False	0
135.129	1.708	136.837	0.194990086873203	draw_card	1.708	columbia_card_task_fmri	15.0	0.8125	89.0	-70.0	0.1875	16.0	1.0	3.0	1.2934533941094557	1.708	n/a	stim	poldrack-single-stim	s646	False	1
136.84	1.679	138.519	-0.8675099131267969	draw_card	1.679	columbia_card_task_fmri	15.0	0.8	89.0	-70.0	0.2	16.0	2.0	3.0	2.116433798201733	1.679	2.0	stim	poldrack-single-stim	s646	False	0
139.277	1.5	138.526	n/a	-1.0	2.318	columbia_card_task_fmri	n/a	n/a	-1.0	n/a	n/a	n/a	n/a	n/a	n/a	n/a	n/a	ITI	poldrack-single-stim	s646	False	0
140.847	1.108	141.955	7.132490086873203	draw_card	1.108	columbia_card_task_fmri	30.0	0.7	89.0	-50.0	0.3	10.0	1.0	3.0	4.775671612826635	1.108	n/a	stim	poldrack-single-stim	s646	False	1
141.956	2.549	144.505	4.465823420206542	draw_card	2.549	columbia_card_task_fmri	30.0	0.6666666666666667	89.0	-50.0	0.3333333333333333	10.0	2.0	3.0	5.826940223454237	2.549	n/a	stim	poldrack-single-stim	s646	False	1
144.507	1.566	146.073	1.132490086873203	draw_card	1.566	columbia_card_task_fmri	30.0	0.625	89.0	-50.0	0.375	10.0	3.0	3.0	6.843965599947765	1.566	3.0	stim	poldrack-single-stim	s646	False	0
146.829	1.5	146.078	n/a	-1.0	2.318	columbia_card_task_fmri	n/a	n/a	-1.0	n/a	n/a	n/a	n/a	n/a	n/a	n/a	n/a	ITI	poldrack-single-stim	s646	False	0
148.4	0.915	149.315	6.532490086873203	draw_card	0.915	columbia_card_task_fmri	17.0	0.8666666666666667	89.0	-70.0	0.1333333333333333	15.0	1.0	2.0	-2.306433289774578	0.915	n/a	stim	poldrack-single-stim	s646	False	1
149.318	2.51	151.828	5.703918658301776	draw_card	2.51	columbia_card_task_fmri	17.0	0.8571428571428572	89.0	-70.0	0.1428571428571428	15.0	2.0	2.0	-1.4377067596510429	2.51	n/a	stim	poldrack-single-stim	s646	False	1
151.831	1.962	153.793	4.747874702257818	draw_card	1.962	columbia_card_task_fmri	17.0	0.8461538461538461	89.0	-70.0	0.1538461538461538	15.0	3.0	2.0	-0.4922937280928963	1.962	n/a	stim	poldrack-single-stim	s646	False	1
153.795	2.439	156.234	3.632490086873205	draw_card	2.439	columbia_card_task_fmri	17.0	0.8333333333333334	89.0	-70.0	0.1666666666666666	15.0	4.0	2.0	0.5403360374502597	2.439	n/a	stim	poldrack-single-stim	s646	False	1
156.237	1.168	157.405	2.314308268691383	end_round	1.168	columbia_card_task_fmri	17.0	0.8181818181818181	71.0	-70.0	0.1818181818181818	15.0	5.0	2.0	1.6721143595439898	1.168	4.0	stim	poldrack-single-stim	s646	False	1
158.162	1.5	157.411	n/a	-1.0	2.59	columbia_card_task_fmri	n/a	n/a	-1.0	n/a	n/a	n/a	n/a	n/a	n/a	n/a	n/a	ITI	poldrack-single-stim	s646	False	0
160.005	2.651	162.656	1.757490086873203	draw_card	2.651	columbia_card_task_fmri	7.0	0.9375	89.0	-95.0	0.0625	16.0	1.0	1.0	-7.18619412361172	2.651	n/a	stim	poldrack-single-stim	s646	False	1
162.659	2.054	164.713	1.3324900868732032	draw_card	2.054	columbia_card_task_fmri	7.0	0.9333333333333332	89.0	-95.0	0.0666666666666666	16.0	2.0	1.0	-6.433960213079391	2.054	n/a	stim	poldrack-single-stim	s646	False	1
164.716	2.035	166.751	0.8467758011589175	draw_card	2.035	columbia_card_task_fmri	7.0	0.9285714285714286	89.0	-95.0	0.0714285714285714	16.0	3.0	1.0	-5.60900513055979	2.035	n/a	stim	poldrack-single-stim	s646	False	1
166.753	2.659	169.412	0.2863362407193563	draw_card	2.659	columbia_card_task_fmri	7.0	0.9230769230769232	89.0	-95.0	0.0769230769230769	16.0	4.0	1.0	-4.698964338534434	2.659	n/a	stim	poldrack-single-stim	s646	False	1
169.414	2.534	171.948	-0.3675099131267969	draw_card	2.534	columbia_card_task_fmri	7.0	0.9166666666666666	89.0	-95.0	0.0833333333333333	16.0	5.0	1.0	-3.6883732461445256	2.534	n/a	stim	poldrack-single-stim	s646	False	1
171.951	3.057	175.008	-1.1402371858540703	draw_card	3.057	columbia_card_task_fmri	7.0	0.9090909090909092	89.0	-95.0	0.0909090909090909	16.0	6.0	1.0	-2.5576224886506544	3.057	n/a	stim	poldrack-single-stim	s646	False	1
175.011	1.383	176.394	-2.067509913126797	end_round	1.383	columbia_card_task_fmri	7.0	0.9	71.0	-95.0	0.1	16.0	7.0	1.0	-1.281472501029203	1.383	6.0	stim	poldrack-single-stim	s646	False	1
177.151	1.5	176.4	n/a	-1.0	2.726	columbia_card_task_fmri	n/a	n/a	-1.0	n/a	n/a	n/a	n/a	n/a	n/a	n/a	n/a	ITI	poldrack-single-stim	s646	False	0
179.131	1.371	180.502	3.319990086873203	draw_card	1.371	columbia_card_task_fmri	9.0	0.9375	89.0	-100.0	0.0625	16.0	1.0	1.0	-5.49342940306817	1.371	n/a	stim	poldrack-single-stim	s646	False	1
180.505	4.171	184.676	2.8658234202065365	draw_card	4.171	columbia_card_task_fmri	9.0	0.9333333333333332	89.0	-100.0	0.0666666666666666	16.0	2.0	1.0	-4.689469774347117	4.171	n/a	stim	poldrack-single-stim	s646	False	1
184.679	3.047	187.726	2.3467758011589184	draw_card	3.047	columbia_card_task_fmri	9.0	0.9285714285714286	89.0	-100.0	0.0714285714285714	16.0	3.0	1.0	-3.807795160820042	3.047	n/a	stim	poldrack-single-stim	s646	False	1
187.729	2.501	190.23	1.747874702257819	draw_card	2.501	columbia_card_task_fmri	9.0	0.9230769230769232	89.0	-100.0	0.0769230769230769	16.0	4.0	1.0	-2.835192182525006	2.501	n/a	stim	poldrack-single-stim	s646	False	1
190.232	2.595	192.827	1.049156753539871	draw_card	2.595	columbia_card_task_fmri	9.0	0.9166666666666666	89.0	-100.0	0.0833333333333333	16.0	5.0	1.0	-1.7551346115080335	2.595	n/a	stim	poldrack-single-stim	s646	False	1
192.831	2.843	195.674	0.223399177782293	draw_card	2.843	columbia_card_task_fmri	9.0	0.9090909090909092	89.0	-100.0	0.0909090909090909	16.0	6.0	1.0	-0.5466669459293811	2.843	n/a	stim	poldrack-single-stim	s646	False	1
195.677	3.79	199.467	-0.7675099131267973	draw_card	3.79	columbia_card_task_fmri	9.0	0.9	89.0	-100.0	0.1	16.0	7.0	1.0	0.8171829671589279	3.79	n/a	stim	poldrack-single-stim	s646	False	1
199.472	1.433	200.905	-1.978621024237908	end_round	1.433	columbia_card_task_fmri	9.0	0.8888888888888888	71.0	-100.0	0.1111111111111111	16.0	8.0	1.0	2.371688472840773	1.433	7.0	stim	poldrack-single-stim	s646	False	1
201.663	1.5	200.912	n/a	-1.0	2.522	columbia_card_task_fmri	n/a	n/a	-1.0	n/a	n/a	n/a	n/a	n/a	n/a	n/a	n/a	ITI	poldrack-single-stim	s646	False	0
203.438	3.065	206.503	4.257490086873203	draw_card	3.065	columbia_card_task_fmri	15.0	0.875	89.0	-80.0	0.125	16.0	1.0	2.0	-0.4637209517114549	3.065	n/a	stim	poldrack-single-stim	s646	False	1
206.506	2.387	208.893	3.465823420206537	draw_card	2.387	columbia_card_task_fmri	15.0	0.8666666666666667	89.0	-80.0	0.1333333333333333	16.0	2.0	2.0	0.4112196688775853	2.387	n/a	stim	poldrack-single-stim	s646	False	1
208.896	2.203	211.099	2.5610615154446337	draw_card	2.203	columbia_card_task_fmri	15.0	0.8571428571428572	89.0	-80.0	0.1428571428571428	16.0	3.0	2.0	1.359937962559492	2.203	3.0	stim	poldrack-single-stim	s646	False	0
211.856	1.5	211.105	n/a	-1.0	3.134	columbia_card_task_fmri	n/a	n/a	-1.0	n/a	n/a	n/a	n/a	n/a	n/a	n/a	n/a	ITI	poldrack-single-stim	s646	False	0
214.243	1.72	215.963	6.382490086873203	draw_card	1.72	columbia_card_task_fmri	16.0	0.875	89.0	-70.0	0.125	16.0	1.0	2.0	-3.438057485702025	1.72	n/a	stim	poldrack-single-stim	s646	False	1
215.966	2.514	218.48	5.665823420206536	draw_card	2.514	columbia_card_task_fmri	16.0	0.8666666666666667	89.0	-70.0	0.1333333333333333	16.0	2.0	2.0	-2.6461160735044587	2.514	n/a	stim	poldrack-single-stim	s646	False	1
218.485	2.588	221.073	4.846775801158918	draw_card	2.588	columbia_card_task_fmri	16.0	0.8571428571428572	89.0	-70.0	0.1428571428571428	16.0	3.0	2.0	-1.7873891917583506	2.588	3.0	stim	poldrack-single-stim	s646	False	0
221.831	1.5	221.08	n/a	-1.0	2.386	columbia_card_task_fmri	n/a	n/a	-1.0	n/a	n/a	n/a	n/a	n/a	n/a	n/a	n/a	ITI	poldrack-single-stim	s646	False	0
223.47	1.843	225.313	7.694990086873203	draw_card	1.843	columbia_card_task_fmri	30.0	0.6875	89.0	-45.0	0.3125	16.0	1.0	5.0	2.879450346499752	1.843	n/a	stim	poldrack-single-stim	s646	False	1
225.317	2.646	227.963	6.132490086873206	draw_card	2.646	columbia_card_task_fmri	30.0	0.6666666666666667	89.0	-45.0	0.3333333333333333	16.0	2.0	5.0	3.4710504116368317	2.646	2.0	stim	poldrack-single-stim	s646	False	0
228.721	1.5	227.97	n/a	-1.0	2.386	columbia_card_task_fmri	n/a	n/a	-1.0	n/a	n/a	n/a	n/a	n/a	n/a	n/a	n/a	ITI	poldrack-single-stim	s646	False	0
230.359	0.987	231.346	-0.534176579793463	draw_card	0.987	columbia_card_task_fmri	13.0	0.8333333333333334	89.0	-75.0	0.1666666666666666	6.0	1.0	1.0	0.9127894850341108	0.987	1.0	stim	poldrack-single-stim	s646	False	0
232.101	1.5	231.35	n/a	-1.0	2.318	columbia_card_task_fmri	n/a	n/a	-1.0	n/a	n/a	n/a	n/a	n/a	n/a	n/a	n/a	ITI	poldrack-single-stim	s646	False	0
233.672	1.128	234.8	1.1324900868732048	draw_card	1.128	columbia_card_task_fmri	14.0	0.8333333333333334	89.0	-70.0	0.1666666666666666	6.0	1.0	1.0	-0.5769922575317956	1.128	n/a	stim	poldrack-single-stim	s646	False	1
234.802	2.336	237.138	-1.667509913126796	draw_card	2.336	columbia_card_task_fmri	14.0	0.8	89.0	-70.0	0.2	6.0	2.0	1.0	1.7166581425404883	2.336	2.0	stim	poldrack-single-stim	s646	False	0
237.897	1.5	237.146	n/a	-1.0	2.318	columbia_card_task_fmri	n/a	n/a	-1.0	n/a	n/a	n/a	n/a	n/a	n/a	n/a	n/a	ITI	poldrack-single-stim	s646	False	0
239.468	0.809	240.277	1.1324900868732048	draw_card	0.809	columbia_card_task_fmri	16.0	0.8333333333333334	89.0	-80.0	0.1666666666666666	6.0	1.0	1.0	3.892585342580105	0.809	1.0	stim	poldrack-single-stim	s646	False	0
241.034	1.5	240.283	n/a	-1.0	2.862	columbia_card_task_fmri	n/a	n/a	-1.0	n/a	n/a	n/a	n/a	n/a	n/a	n/a	n/a	ITI	poldrack-single-stim	s646	False	0
243.15	1.193	244.343	3.632490086873205	draw_card	1.193	columbia_card_task_fmri	17.0	0.8333333333333334	89.0	-70.0	0.1666666666666666	6.0	1.0	1.0	0.5403360374502597	1.193	n/a	stim	poldrack-single-stim	s646	False	1
244.345	3.097	247.442	0.7324900868732045	draw_card	3.097	columbia_card_task_fmri	17.0	0.8	89.0	-70.0	0.2	6.0	2.0	1.0	2.9160005690282844	3.097	n/a	stim	poldrack-single-stim	s646	False	1
247.445	1.056	248.501	-3.617509913126797	end_round	1.056	columbia_card_task_fmri	17.0	0.75	71.0	-70.0	0.25	6.0	3.0	1.0	5.786701783227471	1.056	2.0	stim	poldrack-single-stim	s646	False	1
249.255	1.5	248.504	n/a	-1.0	2.726	columbia_card_task_fmri	n/a	n/a	-1.0	n/a	n/a	n/a	n/a	n/a	n/a	n/a	n/a	ITI	poldrack-single-stim	s646	False	0
251.234	1.042	252.276	3.632490086873203	draw_card	1.042	columbia_card_task_fmri	25.0	0.75	89.0	-65.0	0.25	8.0	1.0	2.0	7.085172849631185	1.042	1.0	stim	poldrack-single-stim	s646	False	0
253.033	1.5	252.282	n/a	-1.0	2.25	columbia_card_task_fmri	n/a	n/a	-1.0	n/a	n/a	n/a	n/a	n/a	n/a	n/a	n/a	ITI	poldrack-single-stim	s646	False	0
254.537	2.326	256.863	3.632490086873203	draw_card	2.326	columbia_card_task_fmri	30.0	0.75	89.0	-80.0	0.25	8.0	1.0	2.0	15.742436654804813	2.326	n/a	stim	poldrack-single-stim	s646	False	1
256.866	2.435	259.301	-0.2960813416982204	draw_card	2.435	columbia_card_task_fmri	30.0	0.7142857142857143	89.0	-80.0	0.2857142857142857	8.0	2.0	2.0	17.80341580914508	2.435	n/a	stim	poldrack-single-stim	s646	False	1
259.305	2.486	261.791	-5.534176579793458	draw_card	2.486	columbia_card_task_fmri	30.0	0.6666666666666667	89.0	-80.0	0.3333333333333333	8.0	3.0	2.0	19.96444070745196	2.486	n/a	stim	poldrack-single-stim	s646	False	1
261.794	0.884	262.678	-12.867509913126796	end_round	0.884	columbia_card_task_fmri	30.0	0.6	71.0	-80.0	0.4	8.0	4.0	2.0	21.998251086545515	0.884	3.0	stim	poldrack-single-stim	s646	False	1
263.433	1.5	262.682	n/a	-1.0	2.318	columbia_card_task_fmri	n/a	n/a	-1.0	n/a	n/a	n/a	n/a	n/a	n/a	n/a	n/a	ITI	poldrack-single-stim	s646	False	0
265.004	2.184	267.188	3.332490086873204	draw_card	2.184	columbia_card_task_fmri	13.0	0.9	89.0	-95.0	0.1	10.0	1.0	1.0	0.5173643821729144	2.184	n/a	stim	poldrack-single-stim	s646	False	1
267.192	2.8	269.992	2.132490086873203	draw_card	2.8	columbia_card_task_fmri	13.0	0.8888888888888888	89.0	-95.0	0.1111111111111111	10.0	2.0	1.0	2.057591983965473	2.8	n/a	stim	poldrack-single-stim	s646	False	1
269.994	2.586	272.58	0.6324900868732031	draw_card	2.586	columbia_card_task_fmri	13.0	0.875	89.0	-95.0	0.125	10.0	3.0	1.0	3.833170210391323	2.586	n/a	stim	poldrack-single-stim	s646	False	1
272.584	0.851	273.435	-1.296081341698224	end_round	0.851	columbia_card_task_fmri	13.0	0.8571428571428572	71.0	-95.0	0.1428571428571428	10.0	4.0	1.0	5.906670154707022	0.851	3.0	stim	poldrack-single-stim	s646	False	1
274.192	1.5	273.441	n/a	-1.0	2.454	columbia_card_task_fmri	n/a	n/a	-1.0	n/a	n/a	n/a	n/a	n/a	n/a	n/a	n/a	ITI	poldrack-single-stim	s646	False	0
275.901	1.992	277.893	4.732490086873202	draw_card	1.992	columbia_card_task_fmri	14.0	0.9	89.0	-90.0	0.1	10.0	1.0	1.0	-0.681875103750496	1.992	n/a	stim	poldrack-single-stim	s646	False	1
277.896	3.595	281.491	3.576934531317646	draw_card	3.595	columbia_card_task_fmri	14.0	0.8888888888888888	89.0	-90.0	0.1111111111111111	10.0	2.0	1.0	0.8012393054206655	3.595	n/a	stim	poldrack-single-stim	s646	False	1
281.495	6.352	287.847	2.132490086873203	draw_card	6.352	columbia_card_task_fmri	14.0	0.875	89.0	-90.0	0.125	10.0	3.0	1.0	2.510984544610878	6.352	n/a	stim	poldrack-single-stim	s646	False	1
287.851	2.424	290.275	0.2753472297303472	draw_card	2.424	columbia_card_task_fmri	14.0	0.8571428571428572	89.0	-90.0	0.1428571428571428	10.0	4.0	1.0	4.5076138996023545	2.424	n/a	stim	poldrack-single-stim	s646	False	1
290.279	1.22	291.499	-2.200843246460129	end_round	1.22	columbia_card_task_fmri	14.0	0.8333333333333334	71.0	-90.0	0.1666666666666666	10.0	5.0	1.0	6.872631504555073	1.22	4.0	stim	poldrack-single-stim	s646	False	1
292.257	1.5	291.506	n/a	-1.0	2.522	columbia_card_task_fmri	n/a	n/a	-1.0	n/a	n/a	n/a	n/a	n/a	n/a	n/a	n/a	ITI	poldrack-single-stim	s646	False	0
294.032	1.823	295.855	-0.0675099131267962	draw_card	1.823	columbia_card_task_fmri	16.0	0.8	89.0	-70.0	0.2	10.0	1.0	2.0	2.516214666886299	1.823	n/a	stim	poldrack-single-stim	s646	False	1
295.859	1.48	297.339	-1.978621024237908	draw_card	1.48	columbia_card_task_fmri	16.0	0.7777777777777778	89.0	-70.0	0.2222222222222222	10.0	2.0	2.0	3.869124490173377	1.48	n/a	stim	poldrack-single-stim	s646	False	1
297.343	1.868	299.211	-4.367509913126797	draw_card	1.868	columbia_card_task_fmri	16.0	0.75	89.0	-70.0	0.25	10.0	3.0	2.0	5.353886879753482	1.868	n/a	stim	poldrack-single-stim	s646	False	1
299.215	1.709	300.924	-7.438938484555368	draw_card	1.709	columbia_card_task_fmri	16.0	0.7142857142857143	89.0	-70.0	0.2857142857142857	10.0	4.0	2.0	6.964920425285435	1.709	4.0	stim	poldrack-single-stim	s646	False	0
301.682	1.5	300.931	n/a	-1.0	2.318	columbia_card_task_fmri	n/a	n/a	-1.0	n/a	n/a	n/a	n/a	n/a	n/a	n/a	n/a	ITI	poldrack-single-stim	s646	False	0
303.254	0.681	303.935	-0.784176579793463	draw_card	0.681	columbia_card_task_fmri	7.0	0.9166666666666666	89.0	-100.0	0.0833333333333333	12.0	1.0	1.0	-2.307507966940648	0.681	n/a	stim	poldrack-single-stim	s646	False	1
303.939	1.681	305.62	-1.594782640399525	draw_card	1.681	columbia_card_task_fmri	7.0	0.9090909090909092	89.0	-100.0	0.0909090909090909	12.0	2.0	1.0	-1.1212443844275055	1.681	n/a	stim	poldrack-single-stim	s646	False	1
305.623	1.778	307.401	-2.567509913126797	draw_card	1.778	columbia_card_task_fmri	7.0	0.9	89.0	-100.0	0.1	12.0	3.0	1.0	0.2175491849889326	1.778	n/a	stim	poldrack-single-stim	s646	False	1
307.404	2.564	309.968	-3.756398802015686	draw_card	2.564	columbia_card_task_fmri	7.0	0.8888888888888888	89.0	-100.0	0.1111111111111111	12.0	4.0	1.0	1.7434987295916713	2.564	n/a	stim	poldrack-single-stim	s646	False	1
309.972	0.956	310.928	-5.242509913126797	end_round	0.956	columbia_card_task_fmri	7.0	0.875	71.0	-100.0	0.125	12.0	5.0	1.0	3.5026189613052168	0.956	4.0	stim	poldrack-single-stim	s646	False	1
311.686	1.5	310.935	n/a	-1.0	2.522	columbia_card_task_fmri	n/a	n/a	-1.0	n/a	n/a	n/a	n/a	n/a	n/a	n/a	n/a	ITI	poldrack-single-stim	s646	False	0
313.462	0.953	314.415	-0.5341765797934612	draw_card	0.953	columbia_card_task_fmri	14.0	0.8333333333333334	89.0	-80.0	0.1666666666666666	12.0	1.0	2.0	3.147610418340534	0.953	n/a	stim	poldrack-single-stim	s646	False	1
314.418	2.161	316.579	-1.9584190040358904	draw_card	2.161	columbia_card_task_fmri	14.0	0.8181818181818181	89.0	-80.0	0.1818181818181818	12.0	2.0	2.0	4.370554606176263	2.161	n/a	stim	poldrack-single-stim	s646	False	1
316.583	3.072	319.655	-3.667509913126796	draw_card	3.072	columbia_card_task_fmri	14.0	0.8	89.0	-80.0	0.2	12.0	3.0	2.0	5.714629339964148	3.072	3.0	stim	poldrack-single-stim	s646	False	0
320.41	1.5	319.659	n/a	-1.0	2.998	columbia_card_task_fmri	n/a	n/a	-1.0	n/a	n/a	n/a	n/a	n/a	n/a	n/a	n/a	ITI	poldrack-single-stim	s646	False	0
322.662	0.94	323.602	1.132490086873203	draw_card	0.94	columbia_card_task_fmri	15.0	0.8333333333333334	89.0	-75.0	0.1666666666666666	12.0	1.0	2.0	1.6577113370831214	0.94	n/a	stim	poldrack-single-stim	s646	False	1
323.605	1.429	325.034	-0.231146276763162	draw_card	1.429	columbia_card_task_fmri	15.0	0.8181818181818181	89.0	-75.0	0.1818181818181818	12.0	2.0	2.0	2.8285616866188903	1.429	n/a	stim	poldrack-single-stim	s646	False	1
325.038	2.47	327.508	-1.867509913126797	draw_card	2.47	columbia_card_task_fmri	15.0	0.8	89.0	-75.0	0.2	12.0	3.0	2.0	4.115386800096346	2.47	n/a	stim	poldrack-single-stim	s646	False	1
327.512	0.809	328.321	-3.867509913126795	end_round	0.809	columbia_card_task_fmri	15.0	0.7777777777777778	71.0	-75.0	0.2222222222222222	12.0	4.0	2.0	5.531286758646246	0.809	3.0	stim	poldrack-single-stim	s646	False	1
329.08	1.5	328.329	n/a	-1.0	2.318	columbia_card_task_fmri	n/a	n/a	-1.0	n/a	n/a	n/a	n/a	n/a	n/a	n/a	n/a	ITI	poldrack-single-stim	s646	False	0
330.652	1.738	332.39	0.132490086873203	draw_card	1.738	columbia_card_task_fmri	15.0	0.8	89.0	-65.0	0.2	15.0	1.0	3.0	0.1176115552205772	1.738	n/a	stim	poldrack-single-stim	s646	False	1
332.393	1.881	334.274	-1.0103670559839393	draw_card	1.881	columbia_card_task_fmri	15.0	0.7857142857142857	89.0	-65.0	0.2142857142857142	15.0	2.0	3.0	0.9431799837425956	1.881	2.0	stim	poldrack-single-stim	s646	False	0
335.03	1.5	334.279	n/a	-1.0	2.25	columbia_card_task_fmri	n/a	n/a	-1.0	n/a	n/a	n/a	n/a	n/a	n/a	n/a	n/a	ITI	poldrack-single-stim	s646	False	0
336.535	1.51	338.045	-0.6175099131267969	draw_card	1.51	columbia_card_task_fmri	14.0	0.8125	89.0	-70.0	0.1875	16.0	1.0	3.0	0.90337092209721	1.51	1.0	stim	poldrack-single-stim	s646	False	0
338.804	1.5	338.053	n/a	-1.0	2.454	columbia_card_task_fmri	n/a	n/a	-1.0	n/a	n/a	n/a	n/a	n/a	n/a	n/a	n/a	ITI	poldrack-single-stim	s646	False	0
340.512	1.597	342.109	-0.6800099131267969	draw_card	1.597	columbia_card_task_fmri	11.0	0.6875	89.0	-30.0	0.3125	16.0	1.0	5.0	-12.864699276072962	1.597	n/a	stim	poldrack-single-stim	s646	False	1
342.113	1.443	343.556	-1.534176579793463	draw_card	1.443	columbia_card_task_fmri	11.0	0.6666666666666667	89.0	-30.0	0.3333333333333333	16.0	2.0	5.0	-12.54168599976452	1.443	n/a	stim	poldrack-single-stim	s646	False	1
343.56	1.717	345.277	-2.510367055983941	draw_card	1.717	columbia_card_task_fmri	11.0	0.6428571428571428	89.0	-30.0	0.3571428571428571	16.0	3.0	5.0	-12.224352465217514	1.717	n/a	stim	poldrack-single-stim	s646	False	1
345.282	1.845	347.127	-3.636740682357565	draw_card	1.845	columbia_card_task_fmri	11.0	0.6153846153846154	89.0	-30.0	0.3846153846153846	16.0	4.0	5.0	-11.923624095932889	1.845	n/a	stim	poldrack-single-stim	s646	False	1
347.131	1.821	348.952	-4.950843246460131	draw_card	1.821	columbia_card_task_fmri	11.0	0.5833333333333333	89.0	-30.0	0.4166666666666667	16.0	5.0	5.0	-11.657448988889325	1.821	5.0	stim	poldrack-single-stim	s646	False	0
349.71	1.5	348.959	n/a	-1.0	2.318	columbia_card_task_fmri	n/a	n/a	-1.0	n/a	n/a	n/a	n/a	n/a	n/a	n/a	n/a	ITI	poldrack-single-stim	s646	False	0
351.282	1.27	352.552	4.132490086873203	draw_card	1.27	columbia_card_task_fmri	15.0	0.8666666666666667	89.0	-75.0	0.1333333333333333	15.0	1.0	2.0	-1.2873513939120365	1.27	n/a	stim	poldrack-single-stim	s646	False	1
352.555	6.528	359.083	3.275347229730347	draw_card	6.528	columbia_card_task_fmri	15.0	0.8571428571428572	89.0	-75.0	0.1428571428571428	15.0	2.0	2.0	-0.3886268725815291	6.528	n/a	stim	poldrack-single-stim	s646	False	1
359.087	3.336	362.423	2.2863362407193564	draw_card	3.336	columbia_card_task_fmri	15.0	0.8461538461538461	89.0	-75.0	0.1538461538461538	15.0	3.0	2.0	0.5894295773132043	3.336	3.0	stim	poldrack-single-stim	s646	False	0
363.18	1.5	362.429	n/a	-1.0	2.318	columbia_card_task_fmri	n/a	n/a	-1.0	n/a	n/a	n/a	n/a	n/a	n/a	n/a	n/a	ITI	poldrack-single-stim	s646	False	0
364.753	2.138	366.891	5.865823420206537	draw_card	2.138	columbia_card_task_fmri	17.0	0.8666666666666667	89.0	-75.0	0.1333333333333333	15.0	1.0	2.0	-0.6079373300464219	2.138	n/a	stim	poldrack-single-stim	s646	False	1
366.895	1.607	368.502	4.989632944016062	draw_card	1.607	columbia_card_task_fmri	17.0	0.8571428571428572	89.0	-75.0	0.1428571428571428	15.0	2.0	2.0	0.3107851087890481	1.607	n/a	stim	poldrack-single-stim	s646	False	1
368.506	2.005	370.511	3.9786439330270498	draw_card	2.005	columbia_card_task_fmri	17.0	0.8461538461538461	89.0	-75.0	0.1538461538461538	15.0	3.0	2.0	1.3106030752083626	2.005	n/a	stim	poldrack-single-stim	s646	False	1
370.515	1.876	372.391	2.799156753539871	draw_card	1.876	columbia_card_task_fmri	17.0	0.8333333333333334	89.0	-75.0	0.1666666666666666	15.0	4.0	2.0	2.402652049026635	1.876	n/a	stim	poldrack-single-stim	s646	False	1
372.394	2.106	374.5	1.405217359600475	draw_card	2.106	columbia_card_task_fmri	17.0	0.8181818181818181	89.0	-75.0	0.1818181818181818	15.0	5.0	2.0	3.599549614741072	2.106	n/a	stim	poldrack-single-stim	s646	False	1
374.504	2.678	377.182	-0.2675099131267955	draw_card	2.678	columbia_card_task_fmri	17.0	0.8	89.0	-75.0	0.2	15.0	6.0	2.0	4.914999842612687	2.678	n/a	stim	poldrack-single-stim	s646	False	1
377.187	1.741	378.928	-2.311954357571238	end_round	1.741	columbia_card_task_fmri	17.0	0.7777777777777778	71.0	-75.0	0.2222222222222222	15.0	7.0	2.0	6.3623938504061215	1.741	6.0	stim	poldrack-single-stim	s646	False	1
379.686	1.5	378.935	n/a	-1.0	2.59	columbia_card_task_fmri	n/a	n/a	-1.0	n/a	n/a	n/a	n/a	n/a	n/a	n/a	n/a	ITI	poldrack-single-stim	s646	False	0
381.531	3.143	384.674	1.444990086873203	draw_card	3.143	columbia_card_task_fmri	2.0	0.9375	89.0	-25.0	0.0625	16.0	1.0	1.0	-25.269369861590604	3.143	n/a	stim	poldrack-single-stim	s646	False	1
384.678	3.2	387.878	1.332490086873203	draw_card	3.2	columbia_card_task_fmri	2.0	0.9333333333333332	89.0	-25.0	0.0666666666666666	16.0	2.0	1.0	-25.07288782749634	3.2	n/a	stim	poldrack-single-stim	s646	False	1
387.882	2.857	390.739	1.2039186583017747	draw_card	2.857	columbia_card_task_fmri	2.0	0.9285714285714286	89.0	-25.0	0.0714285714285714	16.0	3.0	1.0	-24.8572408148717	2.857	n/a	stim	poldrack-single-stim	s646	False	1
390.743	4.232	394.975	1.0555670099501262	draw_card	4.232	columbia_card_task_fmri	2.0	0.9230769230769232	89.0	-25.0	0.0769230769230769	16.0	4.0	1.0	-24.619163743110114	4.232	n/a	stim	poldrack-single-stim	s646	False	1
394.98	4.629	399.609	0.8824900868732033	draw_card	4.629	columbia_card_task_fmri	2.0	0.9166666666666666	89.0	-25.0	0.0833333333333333	16.0	5.0	1.0	-24.354572150426755	4.629	n/a	stim	poldrack-single-stim	s646	False	1
399.614	2.923	402.537	0.6779446323277483	draw_card	2.923	columbia_card_task_fmri	2.0	0.9090909090909092	89.0	-25.0	0.0909090909090909	16.0	6.0	1.0	-24.058285885962757	2.923	n/a	stim	poldrack-single-stim	s646	False	1
402.542	2.606	405.148	0.4324900868732031	draw_card	2.606	columbia_card_task_fmri	2.0	0.9	89.0	-25.0	0.1	16.0	7.0	1.0	-23.72363617025382	2.606	n/a	stim	poldrack-single-stim	s646	False	1
405.153	1.908	407.061	0.132490086873203	end_round	1.908	columbia_card_task_fmri	2.0	0.8888888888888888	71.0	-25.0	0.1111111111111111	16.0	8.0	1.0	-23.34189994648921	1.908	7.0	stim	poldrack-single-stim	s646	False	1
407.817	1.5	407.066	n/a	-1.0	2.25	columbia_card_task_fmri	n/a	n/a	-1.0	n/a	n/a	n/a	n/a	n/a	n/a	n/a	n/a	ITI	poldrack-single-stim	s646	False	0
409.322	2.965	412.287	3.632490086873203	draw_card	2.965	columbia_card_task_fmri	9.0	0.9375	89.0	-95.0	0.0625	16.0	1.0	1.0	-6.702569903899768	2.965	n/a	stim	poldrack-single-stim	s646	False	1
412.289	2.842	415.131	3.1991567535398704	draw_card	2.842	columbia_card_task_fmri	9.0	0.9333333333333332	89.0	-95.0	0.0666666666666666	16.0	2.0	1.0	-5.935556544536848	2.842	n/a	stim	poldrack-single-stim	s646	False	1
415.134	2.627	417.761	2.703918658301775	draw_card	2.627	columbia_card_task_fmri	9.0	0.9285714285714286	89.0	-95.0	0.0714285714285714	16.0	3.0	1.0	-5.094395188524757	2.627	n/a	stim	poldrack-single-stim	s646	False	1
417.766	2.014	419.78	2.132490086873203	draw_card	2.014	columbia_card_task_fmri	9.0	0.9230769230769232	89.0	-95.0	0.0769230769230769	16.0	4.0	1.0	-4.166478769964378	2.014	n/a	stim	poldrack-single-stim	s646	False	1
419.783	2.487	422.27	1.465823420206537	draw_card	2.487	columbia_card_task_fmri	9.0	0.9166666666666666	89.0	-95.0	0.0833333333333333	16.0	5.0	1.0	-3.136039370839093	2.487	n/a	stim	poldrack-single-stim	s646	False	1
422.274	2.519	424.793	0.677944632327748	draw_card	2.519	columbia_card_task_fmri	9.0	0.9090909090909092	89.0	-95.0	0.0909090909090909	16.0	6.0	1.0	-1.98308301317174	2.519	n/a	stim	poldrack-single-stim	s646	False	1
424.797	2.975	427.772	-0.2675099131267973	draw_card	2.975	columbia_card_task_fmri	9.0	0.9	89.0	-95.0	0.1	16.0	7.0	1.0	-0.681875103750496	2.975	n/a	stim	poldrack-single-stim	s646	False	1
427.775	1.115	428.89	-1.4230654686823525	end_round	1.115	columbia_card_task_fmri	9.0	0.8888888888888888	71.0	-95.0	0.1111111111111111	16.0	8.0	1.0	0.8012393054206655	1.115	7.0	stim	poldrack-single-stim	s646	False	1
429.645	1.5	428.894	n/a	-1.0	2.25	columbia_card_task_fmri	n/a	n/a	-1.0	n/a	n/a	n/a	n/a	n/a	n/a	n/a	n/a	ITI	poldrack-single-stim	s646	False	0
431.149	10.116	441.265	5.194990086873203	draw_card	10.116	columbia_card_task_fmri	11.0	0.9375	89.0	-100.0	0.0625	16.0	1.0	1.0	-5.009743810340211	10.116	n/a	stim	poldrack-single-stim	s646	False	1
441.27	2.768	444.038	4.732490086873204	draw_card	2.768	columbia_card_task_fmri	11.0	0.9333333333333332	89.0	-100.0	0.0666666666666666	16.0	2.0	1.0	-4.191006539071147	2.768	n/a	stim	poldrack-single-stim	s646	False	1
444.041	1.925	445.966	4.203918658301776	draw_card	1.925	columbia_card_task_fmri	11.0	0.9285714285714286	89.0	-100.0	0.0714285714285714	16.0	3.0	1.0	-3.2931275147360672	1.925	n/a	stim	poldrack-single-stim	s646	False	1
445.971	1.778	447.749	3.5940285484116656	draw_card	1.778	columbia_card_task_fmri	11.0	0.9230769230769232	89.0	-100.0	0.0769230769230769	16.0	4.0	1.0	-2.302650834279543	1.778	n/a	stim	poldrack-single-stim	s646	False	1
447.752	2.339	450.091	2.882490086873203	draw_card	2.339	columbia_card_task_fmri	11.0	0.9166666666666666	89.0	-100.0	0.0833333333333333	16.0	5.0	1.0	-1.2027469486969693	2.339	n/a	stim	poldrack-single-stim	s646	False	1
450.095	0.906	451.001	2.041580995964112	end_round	0.906	columbia_card_task_fmri	11.0	0.9090909090909092	71.0	-100.0	0.0909090909090909	16.0	6.0	1.0	0.0279242500037497	0.906	5.0	stim	poldrack-single-stim	s646	False	1
451.757	1.5	451.006	n/a	-1.0	2.522	columbia_card_task_fmri	n/a	n/a	-1.0	n/a	n/a	n/a	n/a	n/a	n/a	n/a	n/a	ITI	poldrack-single-stim	s646	False	0
453.534	2.049	455.583	5.757490086873203	draw_card	2.049	columbia_card_task_fmri	16.0	0.875	89.0	-75.0	0.125	16.0	1.0	2.0	-1.785700349378029	2.049	n/a	stim	poldrack-single-stim	s646	False	1
455.586	1.812	457.398	4.99915675353987	draw_card	1.812	columbia_card_task_fmri	16.0	0.8666666666666667	89.0	-75.0	0.1333333333333333	16.0	2.0	2.0	-0.9476468605922116	1.812	2.0	stim	poldrack-single-stim	s646	False	0
458.156	1.5	457.405	n/a	-1.0	2.454	columbia_card_task_fmri	n/a	n/a	-1.0	n/a	n/a	n/a	n/a	n/a	n/a	n/a	n/a	ITI	poldrack-single-stim	s646	False	0
459.864	1.505	461.369	6.007490086873203	draw_card	1.505	columbia_card_task_fmri	17.0	0.875	89.0	-80.0	0.125	16.0	1.0	2.0	0.1972964398084897	1.505	1.0	stim	poldrack-single-stim	s646	False	0
462.125	1.5	461.374	n/a	-1.0	2.25	columbia_card_task_fmri	n/a	n/a	-1.0	n/a	n/a	n/a	n/a	n/a	n/a	n/a	n/a	ITI	poldrack-single-stim	s646	False	0
474.636	1.993	476.629	0.2991567535398709	draw_card	1.993	columbia_card_task_fmri	13.0	0.8333333333333334	89.0	-70.0	0.1666666666666666	6.0	1.0	1.0	-0.9494236972432546	1.993	1.0	stim	poldrack-single-stim	s646	False	0
477.387	1.5	476.636	n/a	-1.0	2.454	columbia_card_task_fmri	n/a	n/a	-1.0	n/a	n/a	n/a	n/a	n/a	n/a	n/a	n/a	ITI	poldrack-single-stim	s646	False	0
479.095	1.446	480.541	0.2991567535398709	draw_card	1.446	columbia_card_task_fmri	15.0	0.8333333333333334	89.0	-80.0	0.1666666666666666	6.0	1.0	1.0	3.520095876375663	1.446	n/a	stim	poldrack-single-stim	s646	False	1
480.546	1.664	482.21	-2.867509913126797	draw_card	1.664	columbia_card_task_fmri	15.0	0.8	89.0	-80.0	0.2	6.0	2.0	1.0	6.114449934731866	1.664	n/a	stim	poldrack-single-stim	s646	False	1
482.213	1.636	483.849	-7.617509913126797	draw_card	1.636	columbia_card_task_fmri	15.0	0.75	89.0	-80.0	0.25	6.0	3.0	1.0	9.249370830668605	1.636	n/a	stim	poldrack-single-stim	s646	False	1
483.854	0.836	484.69	-15.534176579793462	end_round	0.836	columbia_card_task_fmri	15.0	0.6666666666666667	71.0	-80.0	0.3333333333333333	6.0	4.0	1.0	12.895324711759628	0.836	3.0	stim	poldrack-single-stim	s646	False	1
485.448	1.5	484.697	n/a	-1.0	2.454	columbia_card_task_fmri	n/a	n/a	-1.0	n/a	n/a	n/a	n/a	n/a	n/a	n/a	n/a	ITI	poldrack-single-stim	s646	False	0
487.156	1.562	488.718	1.965823420206537	draw_card	1.562	columbia_card_task_fmri	16.0	0.8333333333333334	89.0	-75.0	0.1666666666666666	6.0	1.0	1.0	2.030179413200095	1.562	n/a	stim	poldrack-single-stim	s646	False	1
488.723	3.42	492.143	-1.0675099131267962	draw_card	3.42	columbia_card_task_fmri	16.0	0.8	89.0	-75.0	0.2	6.0	2.0	1.0	4.515191196756796	3.42	n/a	stim	poldrack-single-stim	s646	False	1
492.147	5.364	497.511	-5.617509913126797	draw_card	5.364	columbia_card_task_fmri	16.0	0.75	89.0	-75.0	0.25	6.0	3.0	1.0	7.518004841459245	5.364	n/a	stim	poldrack-single-stim	s646	False	1
497.516	0.499	498.015	-13.20084324646013	end_round	0.499	columbia_card_task_fmri	16.0	0.6666666666666667	71.0	-75.0	0.3333333333333333	6.0	4.0	1.0	11.010335732751898	0.499	3.0	stim	poldrack-single-stim	s646	False	1
498.772	1.5	498.021	n/a	-1.0	2.522	columbia_card_task_fmri	n/a	n/a	-1.0	n/a	n/a	n/a	n/a	n/a	n/a	n/a	n/a	ITI	poldrack-single-stim	s646	False	0
500.55	1.038	501.588	3.132490086873203	draw_card	1.038	columbia_card_task_fmri	21.0	0.75	89.0	-55.0	0.25	8.0	1.0	2.0	1.0260238987254624	1.038	1.0	stim	poldrack-single-stim	s646	False	0
502.346	1.5	501.595	n/a	-1.0	2.454	columbia_card_task_fmri	n/a	n/a	-1.0	n/a	n/a	n/a	n/a	n/a	n/a	n/a	n/a	ITI	poldrack-single-stim	s646	False	0
504.055	2.087	506.142	4.382490086873203	draw_card	2.087	columbia_card_task_fmri	26.0	0.75	89.0	-65.0	0.25	8.0	1.0	2.0	7.518004841459245	2.087	1.0	stim	poldrack-single-stim	s646	False	0
506.899	1.5	506.148	n/a	-1.0	2.658	columbia_card_task_fmri	n/a	n/a	-1.0	n/a	n/a	n/a	n/a	n/a	n/a	n/a	n/a	ITI	poldrack-single-stim	s646	False	0
508.812	0.846	509.658	-0.534176579793463	draw_card	0.846	columbia_card_task_fmri	15.0	0.7777777777777778	89.0	-60.0	0.2222222222222222	9.0	1.0	2.0	-0.7013840250551837	0.846	1.0	stim	poldrack-single-stim	s646	False	0
510.418	1.5	509.667	n/a	-1.0	2.386	columbia_card_task_fmri	n/a	n/a	-1.0	n/a	n/a	n/a	n/a	n/a	n/a	n/a	n/a	ITI	poldrack-single-stim	s646	False	0
512.058	2.99	515.048	3.832490086873204	draw_card	2.99	columbia_card_task_fmri	13.0	0.9	89.0	-90.0	0.1	10.0	1.0	1.0	-0.9816757548053944	2.99	n/a	stim	poldrack-single-stim	s646	False	1
515.052	2.608	517.66	2.6880456424287584	draw_card	2.608	columbia_card_task_fmri	13.0	0.8888888888888888	89.0	-90.0	0.1111111111111111	10.0	2.0	1.0	0.4871599390633889	2.608	n/a	stim	poldrack-single-stim	s646	False	1
517.665	3.633	521.298	1.257490086873203	draw_card	3.633	columbia_card_task_fmri	13.0	0.875	89.0	-90.0	0.125	10.0	3.0	1.0	2.180446495022423	3.633	n/a	stim	poldrack-single-stim	s646	False	1
521.302	3.668	524.97	-0.5817956274125087	draw_card	3.668	columbia_card_task_fmri	13.0	0.8571428571428572	89.0	-90.0	0.1428571428571428	10.0	4.0	1.0	4.157857744756505	3.668	n/a	stim	poldrack-single-stim	s646	False	1
524.974	0.866	525.84	-3.034176579793463	end_round	0.866	columbia_card_task_fmri	13.0	0.8333333333333334	71.0	-90.0	0.1666666666666666	10.0	5.0	1.0	6.500114037424176	0.866	4.0	stim	poldrack-single-stim	s646	False	1
526.597	1.5	525.846	n/a	-1.0	2.522	columbia_card_task_fmri	n/a	n/a	-1.0	n/a	n/a	n/a	n/a	n/a	n/a	n/a	n/a	ITI	poldrack-single-stim	s646	False	0
528.375	3.723	532.098	5.132490086873203	draw_card	3.723	columbia_card_task_fmri	15.0	0.9	89.0	-95.0	0.1	10.0	1.0	1.0	1.1170048476625638	3.723	n/a	stim	poldrack-single-stim	s646	False	1
532.102	3.737	535.839	3.91026786465098	draw_card	3.737	columbia_card_task_fmri	15.0	0.8888888888888888	89.0	-95.0	0.1111111111111111	10.0	2.0	1.0	2.6857881080997856	3.737	n/a	stim	poldrack-single-stim	s646	False	1
535.843	2.859	538.702	2.382490086873203	draw_card	2.859	columbia_card_task_fmri	15.0	0.875	89.0	-95.0	0.125	10.0	3.0	1.0	4.494281847172026	2.859	n/a	stim	poldrack-single-stim	s646	False	1
538.706	2.953	541.659	0.4182043725874895	draw_card	2.953	columbia_card_task_fmri	15.0	0.8571428571428572	89.0	-95.0	0.1428571428571428	10.0	4.0	1.0	6.6062160568650725	2.953	n/a	stim	poldrack-single-stim	s646	False	1
541.664	3.47	545.134	-2.200843246460129	draw_card	3.47	columbia_card_task_fmri	15.0	0.8333333333333334	89.0	-95.0	0.1666666666666666	10.0	5.0	1.0	9.107797563751989	3.47	n/a	stim	poldrack-single-stim	s646	False	1
545.138	0.574	545.712	-5.867509913126797	end_round	0.574	columbia_card_task_fmri	15.0	0.8	71.0	-95.0	0.2	10.0	6.0	1.0	12.11215007024238	0.574	5.0	stim	poldrack-single-stim	s646	False	1
546.47	1.5	545.719	n/a	-1.0	2.59	columbia_card_task_fmri	n/a	n/a	-1.0	n/a	n/a	n/a	n/a	n/a	n/a	n/a	n/a	ITI	poldrack-single-stim	s646	False	0
548.315	2.309	550.624	0.9324900868732038	draw_card	2.309	columbia_card_task_fmri	16.0	0.8	89.0	-65.0	0.2	10.0	1.0	2.0	0.5173643821729144	2.309	1.0	stim	poldrack-single-stim	s646	False	0
551.384	1.5	550.633	n/a	-1.0	2.386	columbia_card_task_fmri	n/a	n/a	-1.0	n/a	n/a	n/a	n/a	n/a	n/a	n/a	n/a	ITI	poldrack-single-stim	s646	False	0
553.025	1.954	554.979	-0.3675099131267969	draw_card	1.954	columbia_card_task_fmri	7.0	0.9166666666666666	89.0	-95.0	0.0833333333333333	12.0	1.0	1.0	-3.6883732461445256	1.954	n/a	stim	poldrack-single-stim	s646	False	1
554.984	1.796	556.78	-1.1402371858540703	draw_card	1.796	columbia_card_task_fmri	7.0	0.9090909090909092	89.0	-95.0	0.0909090909090909	12.0	2.0	1.0	-2.5576224886506544	1.796	n/a	stim	poldrack-single-stim	s646	False	1
556.784	2.881	559.665	-2.067509913126797	draw_card	2.881	columbia_card_task_fmri	7.0	0.9	89.0	-95.0	0.1	12.0	3.0	1.0	-1.281472501029203	2.881	n/a	stim	poldrack-single-stim	s646	False	1
559.67	2.081	561.751	-3.200843246460131	draw_card	2.081	columbia_card_task_fmri	7.0	0.8888888888888888	89.0	-95.0	0.1111111111111111	12.0	4.0	1.0	0.1730843009009035	2.081	n/a	stim	poldrack-single-stim	s646	False	1
561.755	1.67	563.425	-4.617509913126797	draw_card	1.67	columbia_card_task_fmri	7.0	0.875	89.0	-95.0	0.125	12.0	5.0	1.0	1.8499119888268891	1.67	n/a	stim	poldrack-single-stim	s646	False	1
563.43	2.17	565.6	-6.4389384845553685	draw_card	2.17	columbia_card_task_fmri	7.0	0.8571428571428572	89.0	-95.0	0.1428571428571428	12.0	6.0	1.0	3.808104939392052	2.17	n/a	stim	poldrack-single-stim	s646	False	1
565.605	0.742	566.347	-8.867509913126796	end_round	0.742	columbia_card_task_fmri	7.0	0.8333333333333334	71.0	-95.0	0.1666666666666666	12.0	7.0	1.0	6.127599715849655	0.742	6.0	stim	poldrack-single-stim	s646	False	1
567.104	1.5	566.353	n/a	-1.0	2.59	columbia_card_task_fmri	n/a	n/a	-1.0	n/a	n/a	n/a	n/a	n/a	n/a	n/a	n/a	ITI	poldrack-single-stim	s646	False	0
568.949	2.454	571.403	0.2991567535398709	draw_card	2.454	columbia_card_task_fmri	14.0	0.8333333333333334	89.0	-75.0	0.1666666666666666	12.0	1.0	2.0	1.2852479741977376	2.454	n/a	stim	poldrack-single-stim	s646	False	1
571.406	1.636	573.042	-1.0493280949449804	draw_card	1.636	columbia_card_task_fmri	14.0	0.8181818181818181	89.0	-75.0	0.1818181818181818	12.0	2.0	2.0	2.4430744803987	1.636	n/a	stim	poldrack-single-stim	s646	False	1
573.046	3.274	576.32	-2.667509913126796	draw_card	3.274	columbia_card_task_fmri	14.0	0.8	89.0	-75.0	0.2	12.0	3.0	2.0	3.715586795720213	3.274	n/a	stim	poldrack-single-stim	s646	False	1
576.324	1.792	578.116	-4.645287690904572	draw_card	1.792	columbia_card_task_fmri	14.0	0.7777777777777778	89.0	-75.0	0.2222222222222222	12.0	4.0	2.0	5.115739483608273	1.792	4.0	stim	poldrack-single-stim	s646	False	0
578.874	1.5	578.123	n/a	-1.0	2.318	columbia_card_task_fmri	n/a	n/a	-1.0	n/a	n/a	n/a	n/a	n/a	n/a	n/a	n/a	ITI	poldrack-single-stim	s646	False	0
580.448	1.803	582.251	1.965823420206537	draw_card	1.803	columbia_card_task_fmri	15.0	0.8333333333333334	89.0	-70.0	0.1666666666666666	12.0	1.0	2.0	-0.2045550221110659	1.803	1.0	stim	poldrack-single-stim	s646	False	0
583.011	1.5	582.26	n/a	-1.0	2.25	columbia_card_task_fmri	n/a	n/a	-1.0	n/a	n/a	n/a	n/a	n/a	n/a	n/a	n/a	ITI	poldrack-single-stim	s646	False	0
584.516	1.717	586.233	-0.0675099131267962	draw_card	1.717	columbia_card_task_fmri	16.0	0.8	89.0	-70.0	0.2	15.0	1.0	3.0	2.516214666886299	1.717	n/a	stim	poldrack-single-stim	s646	False	1
586.237	2.074	588.311	-1.2960813416982258	draw_card	2.074	columbia_card_task_fmri	16.0	0.7857142857142857	89.0	-70.0	0.2142857142857142	15.0	2.0	3.0	3.403773609047576	2.074	n/a	stim	poldrack-single-stim	s646	False	1
588.316	3.005	591.321	-2.713663759280644	draw_card	3.005	columbia_card_task_fmri	16.0	0.7692307692307692	89.0	-70.0	0.2307692307692307	15.0	3.0	3.0	4.349225675029238	3.005	n/a	stim	poldrack-single-stim	s646	False	1
591.326	2.229	593.555	-4.367509913126797	draw_card	2.229	columbia_card_task_fmri	16.0	0.75	89.0	-70.0	0.25	15.0	4.0	3.0	5.353886879753482	2.229	4.0	stim	poldrack-single-stim	s646	False	0
594.314	1.5	593.563	n/a	-1.0	2.454	columbia_card_task_fmri	n/a	n/a	-1.0	n/a	n/a	n/a	n/a	n/a	n/a	n/a	n/a	ITI	poldrack-single-stim	s646	False	0
596.025	0.524	596.549	0.3199900868732031	draw_card	0.524	columbia_card_task_fmri	14.0	0.8125	89.0	-65.0	0.1875	16.0	1.0	3.0	-1.0469542174663502	0.524	n/a	stim	poldrack-single-stim	s646	False	1
596.554	1.126	597.68	-0.6675099131267959	draw_card	1.126	columbia_card_task_fmri	14.0	0.8	89.0	-65.0	0.2	16.0	2.0	3.0	-0.2821350201324435	1.126	n/a	stim	poldrack-single-stim	s646	False	1
597.684	1.464	599.148	-1.796081341698224	draw_card	1.464	columbia_card_task_fmri	14.0	0.7857142857142857	89.0	-65.0	0.2142857142857142	16.0	3.0	3.0	0.5331011392686804	1.464	3.0	stim	poldrack-single-stim	s646	False	0
599.906	1.5	599.155	n/a	-1.0	3.27	columbia_card_task_fmri	n/a	n/a	-1.0	n/a	n/a	n/a	n/a	n/a	n/a	n/a	n/a	ITI	poldrack-single-stim	s646	False	0
602.431	5.896	608.327	0.069990086873203	draw_card	5.896	columbia_card_task_fmri	16.0	0.8125	89.0	-75.0	0.1875	16.0	1.0	3.0	3.6340542502362174	5.896	1.0	stim	poldrack-single-stim	s646	False	0
609.086	1.5	608.335	n/a	-1.0	2.25	columbia_card_task_fmri	n/a	n/a	-1.0	n/a	n/a	n/a	n/a	n/a	n/a	n/a	n/a	ITI	poldrack-single-stim	s646	False	0
610.591	3.925	614.516	4.332490086873204	draw_card	3.925	columbia_card_task_fmri	16.0	0.8666666666666667	89.0	-80.0	0.1333333333333333	15.0	1.0	2.0	0.7509476450417836	3.925	n/a	stim	poldrack-single-stim	s646	False	1
614.521	3.082	617.603	3.4182043725874918	draw_card	3.082	columbia_card_task_fmri	16.0	0.8571428571428572	89.0	-80.0	0.1428571428571428	15.0	2.0	2.0	1.7096643015914808	3.082	n/a	stim	poldrack-single-stim	s646	False	1
617.608	2.358	619.966	2.363259317642433	draw_card	2.358	columbia_card_task_fmri	16.0	0.8461538461538461	89.0	-80.0	0.1538461538461538	15.0	3.0	2.0	2.7530036423148303	2.358	n/a	stim	poldrack-single-stim	s646	False	1
619.972	5.418	625.39	1.1324900868732048	draw_card	5.418	columbia_card_task_fmri	16.0	0.8333333333333334	89.0	-80.0	0.1666666666666666	15.0	4.0	2.0	3.892585342580105	5.418	4.0	stim	poldrack-single-stim	s646	False	0
626.148	1.5	625.397	n/a	-1.0	2.25	columbia_card_task_fmri	n/a	n/a	-1.0	n/a	n/a	n/a	n/a	n/a	n/a	n/a	n/a	ITI	poldrack-single-stim	s646	False	0
627.654	0.972	628.626	5.199156753539871	draw_card	0.972	columbia_card_task_fmri	17.0	0.8666666666666667	89.0	-80.0	0.1333333333333333	15.0	1.0	2.0	1.0906798783921443	0.972	n/a	stim	poldrack-single-stim	s646	False	1
628.63	2.342	630.972	4.2753472297303485	draw_card	2.342	columbia_card_task_fmri	17.0	0.8571428571428572	89.0	-80.0	0.1428571428571428	15.0	2.0	2.0	2.05939477666216	2.342	n/a	stim	poldrack-single-stim	s646	False	1
630.978	1.62	632.598	3.20941316379628	draw_card	1.62	columbia_card_task_fmri	17.0	0.8461538461538461	89.0	-80.0	0.1538461538461538	15.0	3.0	2.0	3.1136141402440813	1.62	3.0	stim	poldrack-single-stim	s646	False	0
633.358	1.5	632.607	n/a	-1.0	2.318	columbia_card_task_fmri	n/a	n/a	-1.0	n/a	n/a	n/a	n/a	n/a	n/a	n/a	n/a	ITI	poldrack-single-stim	s646	False	0
634.931	1.362	636.293	1.132490086873203	draw_card	1.362	columbia_card_task_fmri	1.0	0.9375	89.0	-15.0	0.0625	16.0	1.0	1.0	-27.867259587243808	1.362	n/a	stim	poldrack-single-stim	s646	False	1
636.297	1.831	638.128	1.0658234202065364	draw_card	1.831	columbia_card_task_fmri	1.0	0.9333333333333332	89.0	-15.0	0.0666666666666666	16.0	2.0	1.0	-27.753756595358876	1.831	n/a	stim	poldrack-single-stim	s646	False	1
638.134	1.848	639.982	0.9896329440160604	draw_card	1.848	columbia_card_task_fmri	1.0	0.9285714285714286	89.0	-15.0	0.0714285714285714	16.0	3.0	1.0	-27.6290009294444	1.848	n/a	stim	poldrack-single-stim	s646	False	1
639.986	1.709	641.695	0.9017208561039722	draw_card	1.709	columbia_card_task_fmri	1.0	0.9230769230769232	89.0	-15.0	0.0769230769230769	16.0	4.0	1.0	-27.49106725713513	1.709	n/a	stim	poldrack-single-stim	s646	False	1
641.701	0.709	642.41	0.7991567535398697	end_round	0.709	columbia_card_task_fmri	1.0	0.9166666666666666	71.0	-15.0	0.0833333333333333	16.0	5.0	1.0	-27.33754615258017	0.709	4.0	stim	poldrack-single-stim	s646	False	1
643.169	1.5	642.418	n/a	-1.0	2.726	columbia_card_task_fmri	n/a	n/a	-1.0	n/a	n/a	n/a	n/a	n/a	n/a	n/a	n/a	ITI	poldrack-single-stim	s646	False	0
645.15	1.905	647.055	4.257490086873203	draw_card	1.905	columbia_card_task_fmri	10.0	0.9375	89.0	-100.0	0.0625	16.0	1.0	1.0	-5.25158859185494	1.905	n/a	stim	poldrack-single-stim	s646	False	1
647.06	1.919	648.979	3.79915675353987	draw_card	1.919	columbia_card_task_fmri	10.0	0.9333333333333332	89.0	-100.0	0.0666666666666666	16.0	2.0	1.0	-4.440240083413084	1.919	n/a	stim	poldrack-single-stim	s646	False	1
648.983	2.03	651.013	3.275347229730347	draw_card	2.03	columbia_card_task_fmri	10.0	0.9285714285714286	89.0	-100.0	0.0714285714285714	16.0	3.0	1.0	-3.5504632042122037	2.03	n/a	stim	poldrack-single-stim	s646	False	1
651.018	1.824	652.842	2.6709516253347423	draw_card	1.824	columbia_card_task_fmri	10.0	0.9230769230769232	89.0	-100.0	0.0769230769230769	16.0	4.0	1.0	-2.568923312572668	1.824	n/a	stim	poldrack-single-stim	s646	False	1
652.847	1.828	654.675	1.965823420206537	draw_card	1.828	columbia_card_task_fmri	10.0	0.9166666666666666	89.0	-100.0	0.0833333333333333	16.0	5.0	1.0	-1.4789425198177175	1.828	n/a	stim	poldrack-single-stim	s646	False	1
654.681	0.989	655.67	1.1324900868732013	end_round	0.989	columbia_card_task_fmri	10.0	0.9090909090909092	71.0	-100.0	0.0909090909090909	16.0	6.0	1.0	-0.259373020802343	0.989	5.0	stim	poldrack-single-stim	s646	False	1
656.431	1.5	655.68	n/a	-1.0	2.386	columbia_card_task_fmri	n/a	n/a	-1.0	n/a	n/a	n/a	n/a	n/a	n/a	n/a	n/a	ITI	poldrack-single-stim	s646	False	0
658.074	0.521	658.595	4.882490086873203	draw_card	0.521	columbia_card_task_fmri	15.0	0.875	89.0	-75.0	0.125	16.0	1.0	2.0	-2.1161827639803974	0.521	1.0	stim	poldrack-single-stim	s646	False	0
659.352	1.5	658.601	n/a	-1.0	2.318	columbia_card_task_fmri	n/a	n/a	-1.0	n/a	n/a	n/a	n/a	n/a	n/a	n/a	n/a	ITI	poldrack-single-stim	s646	False	0
660.926	0.149	661.075	5.132490086873203	draw_card	0.149	columbia_card_task_fmri	16.0	0.875	89.0	-80.0	0.125	16.0	1.0	2.0	-0.1332144436362554	0.149	n/a	stim	poldrack-single-stim	s646	False	1
661.08	1.854	662.934	4.332490086873204	draw_card	1.854	columbia_card_task_fmri	16.0	0.8666666666666667	89.0	-80.0	0.1333333333333333	16.0	2.0	2.0	0.7509476450417836	1.854	n/a	stim	poldrack-single-stim	s646	False	1
662.941	1.711	664.652	3.4182043725874918	draw_card	1.711	columbia_card_task_fmri	16.0	0.8571428571428572	89.0	-80.0	0.1428571428571428	16.0	3.0	2.0	1.7096643015914808	1.711	n/a	stim	poldrack-single-stim	s646	False	1
664.657	1.944	666.601	2.363259317642433	draw_card	1.944	columbia_card_task_fmri	16.0	0.8461538461538461	89.0	-80.0	0.1538461538461538	16.0	4.0	2.0	2.7530036423148303	1.944	n/a	stim	poldrack-single-stim	s646	False	1
666.607	2.216	668.823	1.1324900868732048	draw_card	2.216	columbia_card_task_fmri	16.0	0.8333333333333334	89.0	-80.0	0.1666666666666666	16.0	5.0	2.0	3.892585342580105	2.216	n/a	stim	poldrack-single-stim	s646	False	1
668.829	2.252	671.081	-0.3220553676722537	draw_card	2.252	columbia_card_task_fmri	16.0	0.8181818181818181	89.0	-80.0	0.1818181818181818	16.0	6.0	2.0	5.141575595496839	2.252	n/a	stim	poldrack-single-stim	s646	False	1
671.086	1.174	672.26	-2.067509913126796	end_round	1.174	columbia_card_task_fmri	16.0	0.8	71.0	-80.0	0.2	16.0	7.0	2.0	6.514274264646566	1.174	6.0	stim	poldrack-single-stim	s646	False	1
673.02	1.5	672.269	n/a	-1.0	2.25	columbia_card_task_fmri	n/a	n/a	-1.0	n/a	n/a	n/a	n/a	n/a	n/a	n/a	n/a	ITI	poldrack-single-stim	s646	False	0
674.526	2.316	676.842	2.319990086873203	draw_card	2.316	columbia_card_task_fmri	4.0	0.6875	89.0	-5.0	0.3125	16.0	1.0	5.0	-27.579820979468924	2.316	n/a	stim	poldrack-single-stim	s646	False	1
676.848	3.17	680.018	2.1324900868732035	draw_card	3.17	columbia_card_task_fmri	4.0	0.6666666666666667	89.0	-5.0	0.3333333333333333	16.0	2.0	5.0	-27.511233565760453	3.17	2.0	stim	poldrack-single-stim	s646	False	0
680.779	1.5	680.028	n/a	-1.0	2.25	columbia_card_task_fmri	n/a	n/a	-1.0	n/a	n/a	n/a	n/a	n/a	n/a	n/a	n/a	ITI	poldrack-single-stim	s646	False	0
