onset	duration	SS_delay	block_duration	correct	correct_response	experiment_exp_id	key_press	passed_check	response_time	stopped	trial_id	trial_type	worker_id	junk
3.022	0.85	0.3	3.066	1.0	71.0	stop_signal	-1.0	True	n/a	True	stim	stop_success	s646	False
6.093	0.85	0.35	2.25	1.0	89.0	stop_signal	89.0	True	0.817	False	stim	stop_failure	s646	False
8.346	0.85	0.3	2.386	1.0	71.0	stop_signal	71.0	True	0.665	False	stim	go	s646	False
10.736	0.85	0.3	2.386	1.0	89.0	stop_signal	-1.0	True	n/a	True	stim	stop_success	s646	False
13.124	0.85	0.35	2.522	1.0	71.0	stop_signal	71.0	True	0.657	False	stim	go	s646	False
15.652	0.85	0.35	2.386	1.0	71.0	stop_signal	71.0	True	0.557	False	stim	go	s646	False
18.042	0.85	0.35	2.386	1.0	71.0	stop_signal	71.0	True	0.689	False	stim	go	s646	False
20.433	0.85	0.35	2.794	1.0	89.0	stop_signal	89.0	True	0.632	False	stim	stop_failure	s646	False
23.234	0.85	0.3	2.386	1.0	89.0	stop_signal	89.0	True	0.734	False	stim	go	s646	False
25.623	0.85	0.3	2.25	1.0	89.0	stop_signal	-1.0	True	n/a	True	stim	stop_success	s646	False
27.879	0.85	0.35	2.522	1.0	71.0	stop_signal	71.0	True	0.687	False	stim	stop_failure	s646	False
30.405	0.85	0.3	2.386	1.0	71.0	stop_signal	-1.0	True	n/a	True	stim	stop_success	s646	False
32.793	0.85	0.35	2.386	1.0	71.0	stop_signal	71.0	True	0.673	False	stim	go	s646	False
35.185	0.85	0.35	2.25	1.0	89.0	stop_signal	-1.0	True	n/a	True	stim	stop_success	s646	False
37.439	0.85	0.4	2.386	1.0	71.0	stop_signal	71.0	True	0.683	False	stim	go	s646	False
39.831	0.85	0.4	2.25	1.0	71.0	stop_signal	71.0	True	0.748	False	stim	go	s646	False
42.089	0.85	0.4	2.25	1.0	89.0	stop_signal	-1.0	True	n/a	True	stim	stop_success	s646	False
44.343	0.85	0.45	2.25	0.0	89.0	stop_signal	71.0	True	0.604	False	stim	go	s646	False
46.595	0.85	0.45	2.386	1.0	89.0	stop_signal	89.0	True	0.698	False	stim	go	s646	False
48.987	0.85	0.45	2.25	1.0	71.0	stop_signal	71.0	True	0.603	False	stim	stop_failure	s646	False
51.244	0.85	0.4	2.25	1.0	71.0	stop_signal	-1.0	True	n/a	True	stim	stop_success	s646	False
53.497	0.85	0.45	2.386	1.0	89.0	stop_signal	89.0	True	0.491	False	stim	stop_failure	s646	False
55.886	0.85	0.4	2.386	1.0	89.0	stop_signal	-1.0	True	n/a	True	stim	stop_success	s646	False
58.275	0.85	0.45	2.25	1.0	71.0	stop_signal	71.0	True	0.557	False	stim	go	s646	False
60.528	0.85	0.45	2.522	1.0	71.0	stop_signal	71.0	True	0.602	False	stim	stop_failure	s646	False
63.052	0.85	0.4	2.25	0.0	89.0	stop_signal	-1.0	True	n/a	True	stim	go	s646	False
65.304	0.85	0.4	2.386	0.0	71.0	stop_signal	89.0	True	0.722	False	stim	go	s646	False
67.696	0.85	0.4	2.25	0.0	71.0	stop_signal	89.0	True	0.599	False	stim	go	s646	False
69.952	0.85	0.4	2.25	0.0	89.0	stop_signal	71.0	True	0.609	False	stim	stop_failure	s646	False
72.205	0.85	0.35	2.386	0.0	89.0	stop_signal	71.0	True	0.634	False	stim	go	s646	False
74.597	0.85	0.35	2.522	0.0	89.0	stop_signal	71.0	True	0.776	False	stim	go	s646	False
77.122	0.85	0.35	2.386	0.0	71.0	stop_signal	-1.0	True	n/a	True	stim	go	s646	False
79.515	0.85	0.35	2.522	1.0	71.0	stop_signal	71.0	True	0.582	False	stim	go	s646	False
82.04	0.85	0.35	2.93	1.0	89.0	stop_signal	-1.0	True	n/a	True	stim	stop_success	s646	False
84.975	0.85	0.4	2.522	0.0	71.0	stop_signal	89.0	True	1.044	False	stim	go	s646	False
87.503	0.85	0.4	2.522	1.0	71.0	stop_signal	71.0	True	0.657	False	stim	go	s646	False
90.031	0.85	0.4	2.25	0.0	89.0	stop_signal	71.0	True	0.57	False	stim	go	s646	False
92.288	0.85	0.4	2.522	0.0	89.0	stop_signal	71.0	True	0.553	False	stim	stop_failure	s646	False
94.813	0.85	0.35	2.386	0.0	89.0	stop_signal	71.0	True	0.662	False	stim	go	s646	False
97.205	0.85	0.35	2.25	1.0	71.0	stop_signal	71.0	True	0.787	False	stim	go	s646	False
99.457	0.85	0.35	2.386	1.0	71.0	stop_signal	71.0	True	1.282	False	stim	go	s646	False
112.362	0.85	0.35	2.25	1.0	71.0	stop_signal	71.0	True	0.773	False	stim	go	s646	False
114.614	0.85	0.35	2.386	1.0	89.0	stop_signal	-1.0	True	n/a	True	stim	stop_success	s646	False
117.006	0.85	0.4	2.522	1.0	71.0	stop_signal	71.0	True	0.618	False	stim	go	s646	False
119.535	0.85	0.4	2.25	1.0	71.0	stop_signal	71.0	True	0.567	False	stim	stop_failure	s646	False
121.788	0.85	0.35	2.386	1.0	89.0	stop_signal	-1.0	True	n/a	True	stim	stop_success	s646	False
124.176	0.85	0.4	2.658	0.0	71.0	stop_signal	89.0	True	0.712	False	stim	go	s646	False
126.841	0.85	0.4	2.25	1.0	89.0	stop_signal	-1.0	True	n/a	True	stim	stop_success	s646	False
129.094	0.85	0.45	3.202	1.0	71.0	stop_signal	71.0	True	0.657	False	stim	go	s646	False
132.3	0.85	0.45	2.386	0.0	89.0	stop_signal	71.0	True	0.752	False	stim	go	s646	False
134.689	0.85	0.45	2.386	1.0	89.0	stop_signal	89.0	True	0.899	False	stim	go	s646	False
137.08	0.85	0.45	2.522	1.0	89.0	stop_signal	89.0	True	0.534	False	stim	stop_failure	s646	False
139.609	0.85	0.4	2.25	1.0	89.0	stop_signal	89.0	True	0.544	False	stim	go	s646	False
141.87	0.85	0.4	2.25	1.0	71.0	stop_signal	71.0	True	0.671	False	stim	stop_failure	s646	False
144.126	0.85	0.35	2.25	0.0	71.0	stop_signal	89.0	True	0.595	False	stim	stop_failure	s646	False
146.379	0.85	0.3	2.93	0.0	89.0	stop_signal	71.0	True	0.786	False	stim	go	s646	False
149.315	0.85	0.3	2.522	1.0	89.0	stop_signal	89.0	True	0.921	False	stim	go	s646	False
151.839	0.85	0.3	2.522	1.0	71.0	stop_signal	71.0	True	0.788	False	stim	go	s646	False
154.365	0.85	0.3	2.25	1.0	89.0	stop_signal	89.0	True	0.712	False	stim	go	s646	False
156.617	0.85	0.3	2.522	1.0	71.0	stop_signal	-1.0	True	n/a	True	stim	stop_success	s646	False
159.144	0.85	0.35	2.25	1.0	71.0	stop_signal	-1.0	True	n/a	True	stim	stop_success	s646	False
161.397	0.85	0.4	2.386	0.0	89.0	stop_signal	71.0	True	0.613	False	stim	go	s646	False
163.789	0.85	0.4	2.25	1.0	89.0	stop_signal	-1.0	True	n/a	True	stim	stop_success	s646	False
166.043	0.85	0.45	2.658	1.0	89.0	stop_signal	89.0	True	0.604	False	stim	go	s646	False
168.703	0.85	0.45	2.658	1.0	71.0	stop_signal	71.0	True	0.697	False	stim	go	s646	False
171.367	0.85	0.45	2.25	0.0	89.0	stop_signal	71.0	True	0.704	False	stim	go	s646	False
173.623	0.85	0.45	2.25	1.0	89.0	stop_signal	89.0	True	0.549	False	stim	go	s646	False
175.877	0.85	0.45	2.386	1.0	89.0	stop_signal	89.0	True	0.74	False	stim	go	s646	False
178.269	0.85	0.45	2.794	1.0	89.0	stop_signal	89.0	True	0.761	False	stim	stop_failure	s646	False
181.066	0.85	0.4	2.386	1.0	71.0	stop_signal	-1.0	True	n/a	True	stim	stop_success	s646	False
183.458	0.85	0.45	2.25	1.0	89.0	stop_signal	-1.0	True	n/a	True	stim	stop_success	s646	False
185.714	0.85	0.5	2.25	1.0	89.0	stop_signal	89.0	True	0.6	False	stim	stop_failure	s646	False
187.97	0.85	0.45	2.25	1.0	89.0	stop_signal	-1.0	True	n/a	True	stim	stop_success	s646	False
190.223	0.85	0.5	2.658	1.0	71.0	stop_signal	71.0	True	0.837	False	stim	go	s646	False
192.884	0.85	0.5	2.658	1.0	89.0	stop_signal	89.0	True	0.733	False	stim	go	s646	False
195.548	0.85	0.5	2.25	1.0	71.0	stop_signal	71.0	True	0.678	False	stim	go	s646	False
197.804	0.85	0.5	2.522	1.0	89.0	stop_signal	89.0	True	0.684	False	stim	go	s646	False
200.331	0.85	0.5	2.25	1.0	71.0	stop_signal	71.0	True	0.836	False	stim	go	s646	False
202.588	0.85	0.5	2.522	0.0	71.0	stop_signal	89.0	True	0.721	False	stim	stop_failure	s646	False
205.115	0.85	0.45	2.522	1.0	71.0	stop_signal	71.0	True	0.516	False	stim	go	s646	False
207.644	0.85	0.45	2.522	1.0	89.0	stop_signal	89.0	True	0.555	False	stim	stop_failure	s646	False
210.169	0.85	0.4	2.386	1.0	89.0	stop_signal	-1.0	True	n/a	True	stim	stop_success	s646	False
212.561	0.85	0.45	2.522	1.0	71.0	stop_signal	-1.0	True	n/a	True	stim	stop_success	s646	False
225.606	0.85	0.5	2.522	0.0	89.0	stop_signal	-1.0	True	n/a	True	stim	go	s646	False
228.131	0.85	0.5	2.386	0.0	71.0	stop_signal	-1.0	True	n/a	True	stim	go	s646	False
230.523	0.85	0.5	2.25	0.0	89.0	stop_signal	-1.0	True	n/a	True	stim	go	s646	False
232.776	0.85	0.5	2.522	0.0	89.0	stop_signal	71.0	True	0.674	False	stim	go	s646	False
235.301	0.85	0.5	2.794	1.0	89.0	stop_signal	89.0	True	0.624	False	stim	go	s646	False
238.102	0.85	0.5	2.522	1.0	71.0	stop_signal	71.0	True	0.868	False	stim	stop_failure	s646	False
240.626	0.85	0.45	2.386	1.0	71.0	stop_signal	-1.0	True	n/a	True	stim	stop_success	s646	False
243.019	0.85	0.5	2.25	1.0	89.0	stop_signal	89.0	True	0.653	False	stim	go	s646	False
245.271	0.85	0.5	2.25	1.0	71.0	stop_signal	71.0	True	0.69	False	stim	stop_failure	s646	False
247.525	0.85	0.45	2.25	1.0	71.0	stop_signal	-1.0	True	n/a	True	stim	stop_success	s646	False
249.781	0.85	0.5	2.25	1.0	71.0	stop_signal	-1.0	True	n/a	True	stim	stop_success	s646	False
252.037	0.85	0.55	2.522	1.0	89.0	stop_signal	89.0	True	0.69	False	stim	go	s646	False
254.565	0.85	0.55	2.25	1.0	71.0	stop_signal	71.0	True	0.766	False	stim	go	s646	False
256.821	0.85	0.55	2.25	1.0	89.0	stop_signal	89.0	True	0.695	False	stim	stop_failure	s646	False
259.077	0.85	0.5	2.25	1.0	71.0	stop_signal	71.0	True	0.822	False	stim	go	s646	False
261.332	0.85	0.5	2.25	0.0	89.0	stop_signal	71.0	True	0.873	False	stim	go	s646	False
263.586	0.85	0.5	2.386	1.0	71.0	stop_signal	71.0	True	0.767	False	stim	go	s646	False
265.978	0.85	0.5	2.25	1.0	71.0	stop_signal	71.0	True	0.753	False	stim	go	s646	False
268.234	0.85	0.5	2.25	0.0	71.0	stop_signal	89.0	True	0.71	False	stim	stop_failure	s646	False
270.49	0.85	0.45	2.25	1.0	71.0	stop_signal	71.0	True	0.863	False	stim	go	s646	False
272.746	0.85	0.45	2.25	1.0	71.0	stop_signal	71.0	True	0.68	False	stim	stop_failure	s646	False
275.002	0.85	0.4	2.522	1.0	71.0	stop_signal	71.0	True	0.682	False	stim	stop_failure	s646	False
277.527	0.85	0.35	2.386	1.0	89.0	stop_signal	89.0	True	0.591	False	stim	go	s646	False
279.918	0.85	0.35	2.522	1.0	89.0	stop_signal	89.0	True	0.852	False	stim	go	s646	False
282.447	0.85	0.35	2.25	1.0	71.0	stop_signal	-1.0	True	n/a	True	stim	stop_success	s646	False
284.7	0.85	0.4	2.386	1.0	71.0	stop_signal	71.0	True	0.716	False	stim	go	s646	False
287.089	0.85	0.4	2.386	1.0	71.0	stop_signal	71.0	True	0.772	False	stim	go	s646	False
289.48	0.85	0.4	2.25	0.0	89.0	stop_signal	71.0	True	0.883	False	stim	go	s646	False
291.734	0.85	0.4	2.386	1.0	89.0	stop_signal	89.0	True	0.603	False	stim	go	s646	False
294.124	0.85	0.4	2.386	1.0	71.0	stop_signal	71.0	True	0.685	False	stim	go	s646	False
296.513	0.85	0.4	2.386	1.0	89.0	stop_signal	-1.0	True	n/a	True	stim	stop_success	s646	False
298.902	0.85	0.45	2.658	1.0	71.0	stop_signal	71.0	True	0.805	False	stim	go	s646	False
301.566	0.85	0.45	2.522	1.0	89.0	stop_signal	89.0	True	0.725	False	stim	go	s646	False
304.094	0.85	0.45	2.25	1.0	89.0	stop_signal	89.0	True	0.753	False	stim	stop_failure	s646	False
306.348	0.85	0.4	2.93	1.0	71.0	stop_signal	71.0	True	0.696	False	stim	stop_failure	s646	False
309.283	0.85	0.35	2.25	1.0	71.0	stop_signal	71.0	True	0.92	False	stim	go	s646	False
311.539	0.85	0.35	2.522	1.0	89.0	stop_signal	89.0	True	1.036	False	stim	go	s646	False
314.067	0.85	0.35	2.25	1.0	89.0	stop_signal	-1.0	True	n/a	True	stim	stop_success	s646	False
316.323	0.85	0.4	2.25	0.0	71.0	stop_signal	89.0	True	0.738	False	stim	go	s646	False
318.579	0.85	0.4	2.25	1.0	89.0	stop_signal	89.0	True	0.622	False	stim	go	s646	False
320.835	0.85	0.4	2.25	1.0	89.0	stop_signal	89.0	True	0.963	False	stim	go	s646	False
323.091	0.85	0.4	2.522	0.0	89.0	stop_signal	71.0	True	0.758	False	stim	go	s646	False
