onset	duration	movement_onset	block_duration	condition	correct	correct_response	experiment_exp_id	key_press	response_time	trial_id	trial_type	worker_id	junk
3.022	0.5	3.021	0.5	AX	n/a	n/a	dot_pattern_expectancy	-1.0	n/a	cue	AX	s642	False
5.534	0.5	5.834	2.18	AX	1.0	89.0	dot_pattern_expectancy	89.0	0.3	probe	AX	s642	False
7.72	0.5	7.719	0.5	AY	n/a	n/a	dot_pattern_expectancy	-1.0	n/a	cue	AY	s642	False
10.228	0.5	10.498	2.316	AY	0.0	71.0	dot_pattern_expectancy	89.0	0.27	probe	AY	s642	False
12.551	0.5	12.55	0.5	AY	n/a	n/a	dot_pattern_expectancy	-1.0	n/a	cue	AY	s642	False
15.063	0.5	15.334	1.636	AY	0.0	71.0	dot_pattern_expectancy	89.0	0.271	probe	AY	s642	False
16.705	0.5	16.704	0.5	BX	n/a	n/a	dot_pattern_expectancy	-1.0	n/a	cue	BX	s642	False
19.216	0.5	19.455	1.908	BX	1.0	71.0	dot_pattern_expectancy	71.0	0.239	probe	BX	s642	False
21.13	0.5	21.129	0.5	AX	n/a	n/a	dot_pattern_expectancy	-1.0	n/a	cue	AX	s642	False
23.642	0.5	23.865	3.54	AX	1.0	89.0	dot_pattern_expectancy	89.0	0.223	probe	AX	s642	False
27.187	0.5	27.186	0.5	BX	n/a	n/a	dot_pattern_expectancy	-1.0	n/a	cue	BX	s642	False
29.7	0.5	29.964	1.636	BX	1.0	71.0	dot_pattern_expectancy	71.0	0.264	probe	BX	s642	False
31.341	0.5	31.34	0.5	BY	n/a	n/a	dot_pattern_expectancy	-1.0	n/a	cue	BY	s642	False
33.852	0.5	34.139	1.5	BY	1.0	71.0	dot_pattern_expectancy	71.0	0.287	probe	BY	s642	False
35.358	0.5	35.357	0.5	AX	n/a	n/a	dot_pattern_expectancy	-1.0	n/a	cue	AX	s642	False
37.869	0.5	38.12	1.5	AX	1.0	89.0	dot_pattern_expectancy	89.0	0.251	probe	AX	s642	False
39.371	0.5	39.37	0.5	AX	n/a	n/a	dot_pattern_expectancy	-1.0	n/a	cue	AX	s642	False
41.881	0.5	42.132	1.772	AX	1.0	89.0	dot_pattern_expectancy	89.0	0.251	probe	AX	s642	False
43.659	0.5	43.658	0.5	BY	n/a	n/a	dot_pattern_expectancy	-1.0	n/a	cue	BY	s642	False
46.171	0.5	46.394	2.452	BY	1.0	71.0	dot_pattern_expectancy	71.0	0.223	probe	BY	s642	False
48.629	0.5	48.628	0.5	AX	n/a	n/a	dot_pattern_expectancy	-1.0	n/a	cue	AX	s642	False
51.137	0.5	51.406	1.908	AX	1.0	89.0	dot_pattern_expectancy	89.0	0.269	probe	AX	s642	False
53.051	0.5	53.05	0.5	BX	n/a	n/a	dot_pattern_expectancy	-1.0	n/a	cue	BX	s642	False
55.56	0.5	55.893	1.636	BX	1.0	71.0	dot_pattern_expectancy	71.0	0.333	probe	BX	s642	False
57.202	0.5	57.201	0.5	AX	n/a	n/a	dot_pattern_expectancy	-1.0	n/a	cue	AX	s642	False
59.713	0.5	59.931	1.5	AX	1.0	89.0	dot_pattern_expectancy	89.0	0.218	probe	AX	s642	False
61.218	0.5	61.217	0.5	AX	n/a	n/a	dot_pattern_expectancy	-1.0	n/a	cue	AX	s642	False
63.73	0.5	63.955	1.636	AX	1.0	89.0	dot_pattern_expectancy	89.0	0.225	probe	AX	s642	False
65.372	0.5	65.371	0.5	AX	n/a	n/a	dot_pattern_expectancy	-1.0	n/a	cue	AX	s642	False
67.883	0.5	68.147	1.636	AX	1.0	89.0	dot_pattern_expectancy	89.0	0.264	probe	AX	s642	False
69.524	0.5	69.523	0.5	BY	n/a	n/a	dot_pattern_expectancy	-1.0	n/a	cue	BY	s642	False
72.036	0.5	72.281	2.452	BY	1.0	71.0	dot_pattern_expectancy	71.0	0.245	probe	BY	s642	False
74.493	0.5	74.492	0.5	AX	n/a	n/a	dot_pattern_expectancy	-1.0	n/a	cue	AX	s642	False
77.003	0.5	77.244	1.5	AX	1.0	89.0	dot_pattern_expectancy	89.0	0.241	probe	AX	s642	False
78.509	0.5	78.508	0.5	BY	n/a	n/a	dot_pattern_expectancy	-1.0	n/a	cue	BY	s642	False
81.02	0.5	81.254	1.5	BY	1.0	71.0	dot_pattern_expectancy	71.0	0.234	probe	BY	s642	False
82.526	0.5	82.525	0.5	AX	n/a	n/a	dot_pattern_expectancy	-1.0	n/a	cue	AX	s642	False
85.034	0.5	85.243	1.636	AX	1.0	89.0	dot_pattern_expectancy	89.0	0.209	probe	AX	s642	False
86.676	0.5	86.675	0.5	AX	n/a	n/a	dot_pattern_expectancy	-1.0	n/a	cue	AX	s642	False
89.188	0.5	89.524	1.636	AX	1.0	89.0	dot_pattern_expectancy	89.0	0.336	probe	AX	s642	False
90.831	0.5	90.83	0.5	AY	n/a	n/a	dot_pattern_expectancy	-1.0	n/a	cue	AY	s642	False
93.343	0.5	93.577	1.636	AY	0.0	71.0	dot_pattern_expectancy	89.0	0.234	probe	AY	s642	False
94.984	0.5	94.983	0.5	AX	n/a	n/a	dot_pattern_expectancy	-1.0	n/a	cue	AX	s642	False
97.495	0.5	97.759	1.5	AX	1.0	89.0	dot_pattern_expectancy	89.0	0.264	probe	AX	s642	False
98.997	0.5	98.996	0.5	AX	n/a	n/a	dot_pattern_expectancy	-1.0	n/a	cue	AX	s642	False
101.508	0.5	101.779	1.5	AX	1.0	89.0	dot_pattern_expectancy	89.0	0.271	probe	AX	s642	False
103.014	0.5	103.013	0.5	AX	n/a	n/a	dot_pattern_expectancy	-1.0	n/a	cue	AX	s642	False
105.526	0.5	105.751	1.772	AX	1.0	89.0	dot_pattern_expectancy	89.0	0.225	probe	AX	s642	False
107.304	0.5	107.303	0.5	AX	n/a	n/a	dot_pattern_expectancy	-1.0	n/a	cue	AX	s642	False
109.817	0.5	110.058	2.18	AX	1.0	89.0	dot_pattern_expectancy	89.0	0.241	probe	AX	s642	False
112.002	0.5	112.001	0.5	BX	n/a	n/a	dot_pattern_expectancy	-1.0	n/a	cue	BX	s642	False
114.509	0.5	114.752	1.772	BX	1.0	71.0	dot_pattern_expectancy	71.0	0.243	probe	BX	s642	False
116.287	0.5	116.286	0.5	BY	n/a	n/a	dot_pattern_expectancy	-1.0	n/a	cue	BY	s642	False
118.797	0.5	119.016	1.5	BY	1.0	71.0	dot_pattern_expectancy	71.0	0.219	probe	BY	s642	False
120.302	0.5	120.301	0.5	AX	n/a	n/a	dot_pattern_expectancy	-1.0	n/a	cue	AX	s642	False
122.813	0.5	123.022	1.5	AX	1.0	89.0	dot_pattern_expectancy	89.0	0.209	probe	AX	s642	False
124.32	0.5	124.319	0.5	AX	n/a	n/a	dot_pattern_expectancy	-1.0	n/a	cue	AX	s642	False
126.83	0.5	127.14	1.636	AX	1.0	89.0	dot_pattern_expectancy	89.0	0.31	probe	AX	s642	False
128.472	0.5	128.471	0.5	AY	n/a	n/a	dot_pattern_expectancy	-1.0	n/a	cue	AY	s642	False
130.984	0.5	131.241	2.18	AY	0.0	71.0	dot_pattern_expectancy	89.0	0.257	probe	AY	s642	False
133.171	0.5	133.17	0.5	AY	n/a	n/a	dot_pattern_expectancy	-1.0	n/a	cue	AY	s642	False
135.681	0.5	135.929	2.316	AY	0.0	71.0	dot_pattern_expectancy	89.0	0.248	probe	AY	s642	False
138.002	0.5	138.001	0.5	BX	n/a	n/a	dot_pattern_expectancy	-1.0	n/a	cue	BX	s642	False
140.511	0.5	140.76	1.636	BX	1.0	71.0	dot_pattern_expectancy	71.0	0.249	probe	BX	s642	False
142.152	0.5	142.151	0.5	BX	n/a	n/a	dot_pattern_expectancy	-1.0	n/a	cue	BX	s642	False
144.665	0.5	144.932	2.18	BX	1.0	71.0	dot_pattern_expectancy	71.0	0.267	probe	BX	s642	False
146.85	0.5	146.849	0.5	AY	n/a	n/a	dot_pattern_expectancy	-1.0	n/a	cue	AY	s642	False
149.361	0.5	149.579	2.044	AY	0.0	71.0	dot_pattern_expectancy	89.0	0.218	probe	AY	s642	False
151.41	0.5	151.409	0.5	AX	n/a	n/a	dot_pattern_expectancy	-1.0	n/a	cue	AX	s642	False
153.922	0.5	154.146	1.772	AX	1.0	89.0	dot_pattern_expectancy	89.0	0.224	probe	AX	s642	False
155.699	0.5	155.698	0.5	AX	n/a	n/a	dot_pattern_expectancy	-1.0	n/a	cue	AX	s642	False
158.21	0.5	158.428	1.5	AX	1.0	89.0	dot_pattern_expectancy	89.0	0.218	probe	AX	s642	False
159.716	0.5	159.715	0.5	AX	n/a	n/a	dot_pattern_expectancy	-1.0	n/a	cue	AX	s642	False
162.228	0.5	162.477	2.18	AX	1.0	89.0	dot_pattern_expectancy	89.0	0.249	probe	AX	s642	False
164.415	0.5	164.414	0.5	AY	n/a	n/a	dot_pattern_expectancy	-1.0	n/a	cue	AY	s642	False
166.927	0.5	167.174	2.452	AY	0.0	71.0	dot_pattern_expectancy	89.0	0.247	probe	AY	s642	False
169.385	0.5	169.384	0.5	AX	n/a	n/a	dot_pattern_expectancy	-1.0	n/a	cue	AX	s642	False
171.894	0.5	172.316	1.636	AX	1.0	89.0	dot_pattern_expectancy	89.0	0.422	probe	AX	s642	False
173.535	0.5	173.534	0.5	AX	n/a	n/a	dot_pattern_expectancy	-1.0	n/a	cue	AX	s642	False
176.047	0.5	176.401	1.908	AX	1.0	89.0	dot_pattern_expectancy	89.0	0.354	probe	AX	s642	False
188.481	0.5	188.48	0.5	AX	n/a	n/a	dot_pattern_expectancy	-1.0	n/a	cue	AX	s642	False
190.991	0.5	191.275	1.772	AX	1.0	89.0	dot_pattern_expectancy	89.0	0.284	probe	AX	s642	False
192.77	0.5	192.769	0.5	AX	n/a	n/a	dot_pattern_expectancy	-1.0	n/a	cue	AX	s642	False
195.281	0.5	195.485	1.5	AX	1.0	89.0	dot_pattern_expectancy	89.0	0.204	probe	AX	s642	False
196.787	0.5	196.786	0.5	AY	n/a	n/a	dot_pattern_expectancy	-1.0	n/a	cue	AY	s642	False
199.298	0.5	199.512	2.452	AY	0.0	71.0	dot_pattern_expectancy	89.0	0.214	probe	AY	s642	False
201.757	0.5	201.756	0.5	AY	n/a	n/a	dot_pattern_expectancy	-1.0	n/a	cue	AY	s642	False
204.266	0.5	204.525	1.772	AY	0.0	71.0	dot_pattern_expectancy	89.0	0.259	probe	AY	s642	False
206.043	0.5	206.042	0.5	AX	n/a	n/a	dot_pattern_expectancy	-1.0	n/a	cue	AX	s642	False
208.554	0.5	208.808	1.908	AX	1.0	89.0	dot_pattern_expectancy	89.0	0.254	probe	AX	s642	False
210.469	0.5	210.468	0.5	AX	n/a	n/a	dot_pattern_expectancy	-1.0	n/a	cue	AX	s642	False
212.977	0.5	213.199	1.908	AX	1.0	89.0	dot_pattern_expectancy	89.0	0.222	probe	AX	s642	False
214.892	0.5	214.891	0.5	AX	n/a	n/a	dot_pattern_expectancy	-1.0	n/a	cue	AX	s642	False
217.404	0.5	217.684	2.588	AX	1.0	89.0	dot_pattern_expectancy	89.0	0.28	probe	AX	s642	False
219.998	0.5	219.997	0.5	AY	n/a	n/a	dot_pattern_expectancy	-1.0	n/a	cue	AY	s642	False
222.512	0.5	222.777	1.5	AY	0.0	71.0	dot_pattern_expectancy	89.0	0.265	probe	AY	s642	False
224.017	0.5	224.016	0.5	BY	n/a	n/a	dot_pattern_expectancy	-1.0	n/a	cue	BY	s642	False
226.528	0.5	226.818	1.5	BY	1.0	71.0	dot_pattern_expectancy	71.0	0.29	probe	BY	s642	False
228.033	0.5	228.032	0.5	BY	n/a	n/a	dot_pattern_expectancy	-1.0	n/a	cue	BY	s642	False
230.542	0.5	230.793	1.5	BY	1.0	71.0	dot_pattern_expectancy	71.0	0.251	probe	BY	s642	False
232.047	0.5	232.046	0.5	AX	n/a	n/a	dot_pattern_expectancy	-1.0	n/a	cue	AX	s642	False
234.558	0.5	234.809	1.636	AX	1.0	89.0	dot_pattern_expectancy	89.0	0.251	probe	AX	s642	False
236.2	0.5	236.199	0.5	BX	n/a	n/a	dot_pattern_expectancy	-1.0	n/a	cue	BX	s642	False
238.705	0.5	238.945	2.044	BX	1.0	71.0	dot_pattern_expectancy	71.0	0.24	probe	BX	s642	False
240.754	0.5	240.753	0.5	AX	n/a	n/a	dot_pattern_expectancy	-1.0	n/a	cue	AX	s642	False
243.264	0.5	243.5	1.772	AX	1.0	89.0	dot_pattern_expectancy	89.0	0.236	probe	AX	s642	False
245.042	0.5	245.041	0.5	BX	n/a	n/a	dot_pattern_expectancy	-1.0	n/a	cue	BX	s642	False
247.55	0.5	247.803	2.588	BX	1.0	71.0	dot_pattern_expectancy	71.0	0.253	probe	BX	s642	False
250.144	0.5	250.143	0.5	AY	n/a	n/a	dot_pattern_expectancy	-1.0	n/a	cue	AY	s642	False
252.655	0.5	252.935	1.5	AY	0.0	71.0	dot_pattern_expectancy	89.0	0.28	probe	AY	s642	False
254.162	0.5	254.161	0.5	AX	n/a	n/a	dot_pattern_expectancy	-1.0	n/a	cue	AX	s642	False
256.672	0.5	256.945	2.452	AX	1.0	89.0	dot_pattern_expectancy	89.0	0.273	probe	AX	s642	False
259.129	0.5	259.128	0.5	BY	n/a	n/a	dot_pattern_expectancy	-1.0	n/a	cue	BY	s642	False
261.639	0.5	261.896	1.636	BY	1.0	71.0	dot_pattern_expectancy	71.0	0.257	probe	BY	s642	False
263.28	0.5	263.279	0.5	AX	n/a	n/a	dot_pattern_expectancy	-1.0	n/a	cue	AX	s642	False
265.791	0.5	266.065	1.636	AX	1.0	89.0	dot_pattern_expectancy	89.0	0.274	probe	AX	s642	False
267.429	0.5	267.428	0.5	AX	n/a	n/a	dot_pattern_expectancy	-1.0	n/a	cue	AX	s642	False
269.939	0.5	270.201	1.5	AX	1.0	89.0	dot_pattern_expectancy	89.0	0.262	probe	AX	s642	False
271.446	0.5	271.445	0.5	BY	n/a	n/a	dot_pattern_expectancy	-1.0	n/a	cue	BY	s642	False
273.958	0.5	274.23	1.636	BY	1.0	71.0	dot_pattern_expectancy	71.0	0.272	probe	BY	s642	False
275.598	0.5	275.597	0.5	AX	n/a	n/a	dot_pattern_expectancy	-1.0	n/a	cue	AX	s642	False
278.108	0.5	278.353	1.5	AX	1.0	89.0	dot_pattern_expectancy	89.0	0.245	probe	AX	s642	False
279.613	0.5	279.612	0.5	AY	n/a	n/a	dot_pattern_expectancy	-1.0	n/a	cue	AY	s642	False
282.125	0.5	282.516	2.18	AY	0.0	71.0	dot_pattern_expectancy	89.0	0.391	probe	AY	s642	False
284.311	0.5	284.31	0.5	AX	n/a	n/a	dot_pattern_expectancy	-1.0	n/a	cue	AX	s642	False
286.818	0.5	287.094	1.5	AX	1.0	89.0	dot_pattern_expectancy	89.0	0.276	probe	AX	s642	False
288.325	0.5	288.324	0.5	AX	n/a	n/a	dot_pattern_expectancy	-1.0	n/a	cue	AX	s642	False
290.837	0.5	291.086	1.908	AX	1.0	89.0	dot_pattern_expectancy	89.0	0.249	probe	AX	s642	False
292.752	0.5	292.751	0.5	BY	n/a	n/a	dot_pattern_expectancy	-1.0	n/a	cue	BY	s642	False
295.262	0.5	295.517	1.636	BY	1.0	71.0	dot_pattern_expectancy	71.0	0.255	probe	BY	s642	False
296.903	0.5	296.902	0.5	BY	n/a	n/a	dot_pattern_expectancy	-1.0	n/a	cue	BY	s642	False
299.411	0.5	299.793	1.636	BY	0.0	71.0	dot_pattern_expectancy	89.0	0.382	probe	BY	s642	False
301.053	0.5	301.052	0.5	AX	n/a	n/a	dot_pattern_expectancy	-1.0	n/a	cue	AX	s642	False
303.564	0.5	304.251	1.636	AX	0.0	89.0	dot_pattern_expectancy	71.0	0.687	probe	AX	s642	False
305.207	0.5	305.206	0.5	AX	n/a	n/a	dot_pattern_expectancy	-1.0	n/a	cue	AX	s642	False
307.717	0.5	308.019	1.5	AX	1.0	89.0	dot_pattern_expectancy	89.0	0.302	probe	AX	s642	False
309.222	0.5	309.221	0.5	BY	n/a	n/a	dot_pattern_expectancy	-1.0	n/a	cue	BY	s642	False
311.733	0.5	311.999	2.044	BY	1.0	71.0	dot_pattern_expectancy	71.0	0.266	probe	BY	s642	False
313.782	0.5	313.781	0.5	AY	n/a	n/a	dot_pattern_expectancy	-1.0	n/a	cue	AY	s642	False
316.292	0.5	316.543	2.18	AY	0.0	71.0	dot_pattern_expectancy	89.0	0.251	probe	AY	s642	False
318.478	0.5	318.477	0.5	AY	n/a	n/a	dot_pattern_expectancy	-1.0	n/a	cue	AY	s642	False
320.985	0.5	321.203	1.636	AY	0.0	71.0	dot_pattern_expectancy	89.0	0.218	probe	AY	s642	False
322.627	0.5	322.626	0.5	AY	n/a	n/a	dot_pattern_expectancy	-1.0	n/a	cue	AY	s642	False
325.139	0.5	325.374	1.772	AY	0.0	71.0	dot_pattern_expectancy	89.0	0.235	probe	AY	s642	False
326.916	0.5	326.915	0.5	BY	n/a	n/a	dot_pattern_expectancy	-1.0	n/a	cue	BY	s642	False
329.427	0.5	329.676	1.5	BY	1.0	71.0	dot_pattern_expectancy	71.0	0.249	probe	BY	s642	False
330.933	0.5	330.932	0.5	BX	n/a	n/a	dot_pattern_expectancy	-1.0	n/a	cue	BX	s642	False
333.445	0.5	333.703	1.908	BX	1.0	71.0	dot_pattern_expectancy	71.0	0.258	probe	BX	s642	False
335.36	0.5	335.359	0.5	AX	n/a	n/a	dot_pattern_expectancy	-1.0	n/a	cue	AX	s642	False
337.871	0.5	338.118	2.044	AX	1.0	89.0	dot_pattern_expectancy	89.0	0.247	probe	AX	s642	False
339.921	0.5	339.92	0.5	AX	n/a	n/a	dot_pattern_expectancy	-1.0	n/a	cue	AX	s642	False
342.432	0.5	342.698	1.636	AX	0.0	89.0	dot_pattern_expectancy	71.0	0.266	probe	AX	s642	False
344.074	0.5	344.073	0.5	AX	n/a	n/a	dot_pattern_expectancy	-1.0	n/a	cue	AX	s642	False
346.586	0.5	346.903	1.772	AX	1.0	89.0	dot_pattern_expectancy	89.0	0.317	probe	AX	s642	False
348.36	0.5	348.359	0.5	AX	n/a	n/a	dot_pattern_expectancy	-1.0	n/a	cue	AX	s642	False
350.872	0.5	351.188	1.636	AX	1.0	89.0	dot_pattern_expectancy	89.0	0.316	probe	AX	s642	False
352.513	0.5	352.512	0.5	BX	n/a	n/a	dot_pattern_expectancy	-1.0	n/a	cue	BX	s642	False
355.023	0.5	355.276	1.772	BX	1.0	71.0	dot_pattern_expectancy	71.0	0.253	probe	BX	s642	False
356.801	0.5	356.8	0.5	AX	n/a	n/a	dot_pattern_expectancy	-1.0	n/a	cue	AX	s642	False
359.311	0.5	359.547	1.5	AX	1.0	89.0	dot_pattern_expectancy	89.0	0.236	probe	AX	s642	False
371.336	0.5	371.335	0.5	BY	n/a	n/a	dot_pattern_expectancy	-1.0	n/a	cue	BY	s642	False
373.847	0.5	374.091	1.636	BY	1.0	71.0	dot_pattern_expectancy	71.0	0.244	probe	BY	s642	False
375.49	0.5	375.489	0.5	AY	n/a	n/a	dot_pattern_expectancy	-1.0	n/a	cue	AY	s642	False
378.0	0.5	378.244	1.5	AY	0.0	71.0	dot_pattern_expectancy	89.0	0.244	probe	AY	s642	False
379.507	0.5	379.506	0.5	AX	n/a	n/a	dot_pattern_expectancy	-1.0	n/a	cue	AX	s642	False
382.016	0.5	382.255	2.044	AX	1.0	89.0	dot_pattern_expectancy	89.0	0.239	probe	AX	s642	False
384.067	0.5	384.066	0.5	BY	n/a	n/a	dot_pattern_expectancy	-1.0	n/a	cue	BY	s642	False
386.577	0.5	386.793	1.772	BY	1.0	71.0	dot_pattern_expectancy	71.0	0.216	probe	BY	s642	False
388.354	0.5	388.353	0.5	BX	n/a	n/a	dot_pattern_expectancy	-1.0	n/a	cue	BX	s642	False
390.867	0.5	391.092	1.636	BX	1.0	71.0	dot_pattern_expectancy	71.0	0.225	probe	BX	s642	False
392.509	0.5	392.508	0.5	AX	n/a	n/a	dot_pattern_expectancy	-1.0	n/a	cue	AX	s642	False
395.021	0.5	395.342	1.636	AX	1.0	89.0	dot_pattern_expectancy	89.0	0.321	probe	AX	s642	False
396.662	0.5	396.661	0.5	AX	n/a	n/a	dot_pattern_expectancy	-1.0	n/a	cue	AX	s642	False
399.171	0.5	399.406	1.5	AX	1.0	89.0	dot_pattern_expectancy	89.0	0.235	probe	AX	s642	False
400.677	0.5	400.676	0.5	AX	n/a	n/a	dot_pattern_expectancy	-1.0	n/a	cue	AX	s642	False
403.187	0.5	403.186	1.5	AX	0.0	89.0	dot_pattern_expectancy	-1.0	n/a	probe	AX	s642	False
404.693	0.5	404.692	0.5	AY	n/a	n/a	dot_pattern_expectancy	-1.0	n/a	cue	AY	s642	False
407.204	0.5	407.482	2.044	AY	0.0	71.0	dot_pattern_expectancy	89.0	0.278	probe	AY	s642	False
409.255	0.5	409.254	0.5	AX	n/a	n/a	dot_pattern_expectancy	-1.0	n/a	cue	AX	s642	False
411.765	0.5	412.075	2.452	AX	1.0	89.0	dot_pattern_expectancy	89.0	0.31	probe	AX	s642	False
414.223	0.5	414.222	0.5	AX	n/a	n/a	dot_pattern_expectancy	-1.0	n/a	cue	AX	s642	False
416.733	0.5	417.093	1.908	AX	1.0	89.0	dot_pattern_expectancy	89.0	0.36	probe	AX	s642	False
418.648	0.5	418.647	0.5	AX	n/a	n/a	dot_pattern_expectancy	-1.0	n/a	cue	AX	s642	False
421.16	0.5	421.159	1.5	AX	0.0	89.0	dot_pattern_expectancy	-1.0	n/a	probe	AX	s642	False
422.665	0.5	422.664	0.5	AX	n/a	n/a	dot_pattern_expectancy	-1.0	n/a	cue	AX	s642	False
425.177	0.5	425.449	1.908	AX	1.0	89.0	dot_pattern_expectancy	89.0	0.272	probe	AX	s642	False
427.092	0.5	427.091	0.5	BX	n/a	n/a	dot_pattern_expectancy	-1.0	n/a	cue	BX	s642	False
429.604	0.5	429.873	2.18	BX	1.0	71.0	dot_pattern_expectancy	71.0	0.269	probe	BX	s642	False
431.791	0.5	431.79	0.5	AX	n/a	n/a	dot_pattern_expectancy	-1.0	n/a	cue	AX	s642	False
434.303	0.5	434.557	1.5	AX	1.0	89.0	dot_pattern_expectancy	89.0	0.254	probe	AX	s642	False
435.809	0.5	435.808	0.5	BY	n/a	n/a	dot_pattern_expectancy	-1.0	n/a	cue	BY	s642	False
438.321	0.5	438.604	1.908	BY	1.0	71.0	dot_pattern_expectancy	71.0	0.283	probe	BY	s642	False
440.236	0.5	440.235	0.5	BX	n/a	n/a	dot_pattern_expectancy	-1.0	n/a	cue	BX	s642	False
442.746	0.5	442.99	2.316	BX	1.0	71.0	dot_pattern_expectancy	71.0	0.244	probe	BX	s642	False
445.067	0.5	445.066	0.5	AY	n/a	n/a	dot_pattern_expectancy	-1.0	n/a	cue	AY	s642	False
447.58	0.5	447.816	2.316	AY	0.0	71.0	dot_pattern_expectancy	89.0	0.236	probe	AY	s642	False
449.902	0.5	449.901	0.5	BX	n/a	n/a	dot_pattern_expectancy	-1.0	n/a	cue	BX	s642	False
452.415	0.5	452.636	1.636	BX	1.0	71.0	dot_pattern_expectancy	71.0	0.221	probe	BX	s642	False
454.057	0.5	454.056	0.5	AY	n/a	n/a	dot_pattern_expectancy	-1.0	n/a	cue	AY	s642	False
456.568	0.5	456.837	1.5	AY	0.0	71.0	dot_pattern_expectancy	89.0	0.269	probe	AY	s642	False
458.074	0.5	458.073	0.5	BY	n/a	n/a	dot_pattern_expectancy	-1.0	n/a	cue	BY	s642	False
460.586	0.5	460.844	1.908	BY	1.0	71.0	dot_pattern_expectancy	71.0	0.258	probe	BY	s642	False
462.501	0.5	462.5	0.5	AX	n/a	n/a	dot_pattern_expectancy	-1.0	n/a	cue	AX	s642	False
465.011	0.5	465.01	1.5	AX	0.0	89.0	dot_pattern_expectancy	-1.0	n/a	probe	AX	s642	False
466.517	0.5	466.516	0.5	AY	n/a	n/a	dot_pattern_expectancy	-1.0	n/a	cue	AY	s642	False
469.027	0.5	469.369	2.316	AY	0.0	71.0	dot_pattern_expectancy	89.0	0.342	probe	AY	s642	False
471.348	0.5	471.347	0.5	AX	n/a	n/a	dot_pattern_expectancy	-1.0	n/a	cue	AX	s642	False
473.86	0.5	474.21	1.5	AX	1.0	89.0	dot_pattern_expectancy	89.0	0.35	probe	AX	s642	False
475.364	0.5	475.363	0.5	AY	n/a	n/a	dot_pattern_expectancy	-1.0	n/a	cue	AY	s642	False
477.876	0.5	478.106	2.724	AY	0.0	71.0	dot_pattern_expectancy	89.0	0.23	probe	AY	s642	False
480.605	0.5	480.604	0.5	AX	n/a	n/a	dot_pattern_expectancy	-1.0	n/a	cue	AX	s642	False
483.117	0.5	483.116	1.5	AX	0.0	89.0	dot_pattern_expectancy	-1.0	n/a	probe	AX	s642	False
484.622	0.5	484.621	0.5	AX	n/a	n/a	dot_pattern_expectancy	-1.0	n/a	cue	AX	s642	False
487.135	0.5	487.857	1.636	AX	1.0	89.0	dot_pattern_expectancy	89.0	0.722	probe	AX	s642	False
488.778	0.5	488.777	0.5	AX	n/a	n/a	dot_pattern_expectancy	-1.0	n/a	cue	AX	s642	False
491.291	0.5	491.899	1.636	AX	1.0	89.0	dot_pattern_expectancy	89.0	0.608	probe	AX	s642	False
492.933	0.5	492.932	0.5	AX	n/a	n/a	dot_pattern_expectancy	-1.0	n/a	cue	AX	s642	False
495.444	0.5	496.023	1.772	AX	1.0	89.0	dot_pattern_expectancy	89.0	0.579	probe	AX	s642	False
497.222	0.5	497.221	0.5	BY	n/a	n/a	dot_pattern_expectancy	-1.0	n/a	cue	BY	s642	False
499.734	0.5	499.945	1.772	BY	1.0	71.0	dot_pattern_expectancy	71.0	0.211	probe	BY	s642	False
501.512	0.5	501.511	0.5	AX	n/a	n/a	dot_pattern_expectancy	-1.0	n/a	cue	AX	s642	False
504.023	0.5	504.327	1.5	AX	1.0	89.0	dot_pattern_expectancy	89.0	0.304	probe	AX	s642	False
505.529	0.5	505.528	0.5	BY	n/a	n/a	dot_pattern_expectancy	-1.0	n/a	cue	BY	s642	False
508.04	0.5	508.285	2.452	BY	1.0	71.0	dot_pattern_expectancy	71.0	0.245	probe	BY	s642	False
510.498	0.5	510.497	0.5	AX	n/a	n/a	dot_pattern_expectancy	-1.0	n/a	cue	AX	s642	False
513.01	0.5	513.461	1.636	AX	1.0	89.0	dot_pattern_expectancy	89.0	0.451	probe	AX	s642	False
514.653	0.5	514.652	0.5	AX	n/a	n/a	dot_pattern_expectancy	-1.0	n/a	cue	AX	s642	False
517.164	0.5	517.436	1.636	AX	1.0	89.0	dot_pattern_expectancy	89.0	0.272	probe	AX	s642	False
518.807	0.5	518.806	0.5	BX	n/a	n/a	dot_pattern_expectancy	-1.0	n/a	cue	BX	s642	False
521.317	0.5	521.641	1.5	BX	1.0	71.0	dot_pattern_expectancy	71.0	0.324	probe	BX	s642	False
522.824	0.5	522.823	0.5	BX	n/a	n/a	dot_pattern_expectancy	-1.0	n/a	cue	BX	s642	False
525.333	0.5	525.481	1.5	BX	1.0	71.0	dot_pattern_expectancy	71.0	0.148	probe	BX	s642	False
526.837	0.5	526.836	0.5	AX	n/a	n/a	dot_pattern_expectancy	-1.0	n/a	cue	AX	s642	False
529.349	0.5	529.565	2.316	AX	1.0	89.0	dot_pattern_expectancy	89.0	0.216	probe	AX	s642	False
531.671	0.5	531.67	0.5	AY	n/a	n/a	dot_pattern_expectancy	-1.0	n/a	cue	AY	s642	False
534.184	0.5	534.416	2.044	AY	0.0	71.0	dot_pattern_expectancy	89.0	0.232	probe	AY	s642	False
536.233	0.5	536.232	0.5	AX	n/a	n/a	dot_pattern_expectancy	-1.0	n/a	cue	AX	s642	False
538.744	0.5	539.02	3.948	AX	1.0	89.0	dot_pattern_expectancy	89.0	0.276	probe	AX	s642	False
542.699	0.5	542.698	0.5	AX	n/a	n/a	dot_pattern_expectancy	-1.0	n/a	cue	AX	s642	False
545.21	0.5	545.483	1.636	AX	1.0	89.0	dot_pattern_expectancy	89.0	0.273	probe	AX	s642	False
557.372	0.5	557.371	0.5	AY	n/a	n/a	dot_pattern_expectancy	-1.0	n/a	cue	AY	s642	False
559.883	0.5	560.229	1.636	AY	0.0	71.0	dot_pattern_expectancy	89.0	0.346	probe	AY	s642	False
561.525	0.5	561.524	0.5	AX	n/a	n/a	dot_pattern_expectancy	-1.0	n/a	cue	AX	s642	False
564.036	0.5	564.296	1.636	AX	1.0	89.0	dot_pattern_expectancy	89.0	0.26	probe	AX	s642	False
565.678	0.5	565.677	0.5	AX	n/a	n/a	dot_pattern_expectancy	-1.0	n/a	cue	AX	s642	False
568.189	0.5	568.469	1.5	AX	1.0	89.0	dot_pattern_expectancy	89.0	0.28	probe	AX	s642	False
569.693	0.5	569.692	0.5	AX	n/a	n/a	dot_pattern_expectancy	-1.0	n/a	cue	AX	s642	False
572.205	0.5	572.461	1.5	AX	1.0	89.0	dot_pattern_expectancy	89.0	0.256	probe	AX	s642	False
573.711	0.5	573.71	0.5	AX	n/a	n/a	dot_pattern_expectancy	-1.0	n/a	cue	AX	s642	False
576.223	0.5	576.52	1.908	AX	1.0	89.0	dot_pattern_expectancy	89.0	0.297	probe	AX	s642	False
578.138	0.5	578.137	0.5	BX	n/a	n/a	dot_pattern_expectancy	-1.0	n/a	cue	BX	s642	False
580.648	0.5	580.892	1.636	BX	1.0	71.0	dot_pattern_expectancy	71.0	0.244	probe	BX	s642	False
582.289	0.5	582.288	0.5	AX	n/a	n/a	dot_pattern_expectancy	-1.0	n/a	cue	AX	s642	False
584.797	0.5	585.08	2.044	AX	1.0	89.0	dot_pattern_expectancy	89.0	0.283	probe	AX	s642	False
586.847	0.5	586.846	0.5	AX	n/a	n/a	dot_pattern_expectancy	-1.0	n/a	cue	AX	s642	False
589.358	0.5	589.647	1.772	AX	1.0	89.0	dot_pattern_expectancy	89.0	0.289	probe	AX	s642	False
591.134	0.5	591.133	0.5	AX	n/a	n/a	dot_pattern_expectancy	-1.0	n/a	cue	AX	s642	False
593.644	0.5	593.959	1.5	AX	1.0	89.0	dot_pattern_expectancy	89.0	0.315	probe	AX	s642	False
595.149	0.5	595.148	0.5	AX	n/a	n/a	dot_pattern_expectancy	-1.0	n/a	cue	AX	s642	False
597.659	0.5	598.143	2.18	AX	0.0	89.0	dot_pattern_expectancy	71.0	0.484	probe	AX	s642	False
599.846	0.5	599.845	0.5	AX	n/a	n/a	dot_pattern_expectancy	-1.0	n/a	cue	AX	s642	False
602.356	0.5	602.649	1.5	AX	1.0	89.0	dot_pattern_expectancy	89.0	0.293	probe	AX	s642	False
603.862	0.5	603.861	0.5	BX	n/a	n/a	dot_pattern_expectancy	-1.0	n/a	cue	BX	s642	False
606.374	0.5	606.711	3.676	BX	1.0	71.0	dot_pattern_expectancy	71.0	0.337	probe	BX	s642	False
610.056	0.5	610.055	0.5	BY	n/a	n/a	dot_pattern_expectancy	-1.0	n/a	cue	BY	s642	False
612.568	0.5	612.808	1.636	BY	1.0	71.0	dot_pattern_expectancy	71.0	0.24	probe	BY	s642	False
614.211	0.5	614.21	0.5	BY	n/a	n/a	dot_pattern_expectancy	-1.0	n/a	cue	BY	s642	False
616.721	0.5	616.989	1.636	BY	1.0	71.0	dot_pattern_expectancy	71.0	0.268	probe	BY	s642	False
618.363	0.5	618.362	0.5	BX	n/a	n/a	dot_pattern_expectancy	-1.0	n/a	cue	BX	s642	False
620.87	0.5	621.117	1.5	BX	1.0	71.0	dot_pattern_expectancy	71.0	0.247	probe	BX	s642	False
622.376	0.5	622.375	0.5	AX	n/a	n/a	dot_pattern_expectancy	-1.0	n/a	cue	AX	s642	False
624.888	0.5	625.102	1.908	AX	1.0	89.0	dot_pattern_expectancy	89.0	0.214	probe	AX	s642	False
626.802	0.5	626.801	0.5	AX	n/a	n/a	dot_pattern_expectancy	-1.0	n/a	cue	AX	s642	False
629.315	0.5	629.542	1.636	AX	1.0	89.0	dot_pattern_expectancy	89.0	0.227	probe	AX	s642	False
630.958	0.5	630.957	0.5	BX	n/a	n/a	dot_pattern_expectancy	-1.0	n/a	cue	BX	s642	False
633.469	0.5	633.702	1.5	BX	1.0	71.0	dot_pattern_expectancy	71.0	0.233	probe	BX	s642	False
634.974	0.5	634.973	0.5	AX	n/a	n/a	dot_pattern_expectancy	-1.0	n/a	cue	AX	s642	False
637.486	0.5	637.725	1.908	AX	1.0	89.0	dot_pattern_expectancy	89.0	0.239	probe	AX	s642	False
639.397	0.5	639.396	0.5	BY	n/a	n/a	dot_pattern_expectancy	-1.0	n/a	cue	BY	s642	False
641.907	0.5	642.198	2.18	BY	1.0	71.0	dot_pattern_expectancy	71.0	0.291	probe	BY	s642	False
644.094	0.5	644.093	0.5	AX	n/a	n/a	dot_pattern_expectancy	-1.0	n/a	cue	AX	s642	False
646.605	0.5	646.949	1.772	AX	1.0	89.0	dot_pattern_expectancy	89.0	0.344	probe	AX	s642	False
648.383	0.5	648.382	0.5	AX	n/a	n/a	dot_pattern_expectancy	-1.0	n/a	cue	AX	s642	False
650.896	0.5	651.122	1.5	AX	1.0	89.0	dot_pattern_expectancy	89.0	0.226	probe	AX	s642	False
652.401	0.5	652.4	0.5	AX	n/a	n/a	dot_pattern_expectancy	-1.0	n/a	cue	AX	s642	False
654.912	0.5	655.187	1.5	AX	0.0	89.0	dot_pattern_expectancy	71.0	0.275	probe	AX	s642	False
656.417	0.5	656.416	0.5	AX	n/a	n/a	dot_pattern_expectancy	-1.0	n/a	cue	AX	s642	False
658.921	0.5	659.191	2.044	AX	1.0	89.0	dot_pattern_expectancy	89.0	0.27	probe	AX	s642	False
660.971	0.5	660.97	0.5	AX	n/a	n/a	dot_pattern_expectancy	-1.0	n/a	cue	AX	s642	False
663.483	0.5	663.754	2.86	AX	1.0	89.0	dot_pattern_expectancy	89.0	0.271	probe	AX	s642	False
666.348	0.5	666.347	0.5	BX	n/a	n/a	dot_pattern_expectancy	-1.0	n/a	cue	BX	s642	False
668.859	0.5	669.083	1.5	BX	1.0	71.0	dot_pattern_expectancy	71.0	0.224	probe	BX	s642	False
670.365	0.5	670.364	0.5	BY	n/a	n/a	dot_pattern_expectancy	-1.0	n/a	cue	BY	s642	False
672.876	0.5	673.143	1.772	BY	1.0	71.0	dot_pattern_expectancy	71.0	0.267	probe	BY	s642	False
674.655	0.5	674.654	0.5	AX	n/a	n/a	dot_pattern_expectancy	-1.0	n/a	cue	AX	s642	False
677.166	0.5	677.375	1.772	AX	1.0	89.0	dot_pattern_expectancy	89.0	0.209	probe	AX	s642	False
678.943	0.5	678.942	0.5	AX	n/a	n/a	dot_pattern_expectancy	-1.0	n/a	cue	AX	s642	False
681.455	0.5	681.681	2.86	AX	1.0	89.0	dot_pattern_expectancy	89.0	0.226	probe	AX	s642	False
684.321	0.5	684.32	0.5	AX	n/a	n/a	dot_pattern_expectancy	-1.0	n/a	cue	AX	s642	False
686.83	0.5	687.077	1.772	AX	1.0	89.0	dot_pattern_expectancy	89.0	0.247	probe	AX	s642	False
688.607	0.5	688.606	0.5	BX	n/a	n/a	dot_pattern_expectancy	-1.0	n/a	cue	BX	s642	False
691.12	0.5	691.331	1.636	BX	1.0	71.0	dot_pattern_expectancy	71.0	0.211	probe	BX	s642	False
692.761	0.5	692.76	0.5	BX	n/a	n/a	dot_pattern_expectancy	-1.0	n/a	cue	BX	s642	False
695.272	0.5	695.508	2.452	BX	1.0	71.0	dot_pattern_expectancy	71.0	0.236	probe	BX	s642	False
697.731	0.5	697.73	0.5	AX	n/a	n/a	dot_pattern_expectancy	-1.0	n/a	cue	AX	s642	False
700.243	0.5	700.508	1.636	AX	1.0	89.0	dot_pattern_expectancy	89.0	0.265	probe	AX	s642	False
701.884	0.5	701.883	0.5	BX	n/a	n/a	dot_pattern_expectancy	-1.0	n/a	cue	BX	s642	False
704.396	0.5	704.632	1.5	BX	1.0	71.0	dot_pattern_expectancy	71.0	0.236	probe	BX	s642	False
705.901	0.5	705.9	0.5	AX	n/a	n/a	dot_pattern_expectancy	-1.0	n/a	cue	AX	s642	False
708.413	0.5	708.701	1.636	AX	1.0	89.0	dot_pattern_expectancy	89.0	0.288	probe	AX	s642	False
710.055	0.5	710.054	0.5	AX	n/a	n/a	dot_pattern_expectancy	-1.0	n/a	cue	AX	s642	False
712.565	0.5	712.564	1.636	AX	0.0	89.0	dot_pattern_expectancy	-1.0	n/a	probe	AX	s642	False
714.204	0.5	714.203	0.5	BY	n/a	n/a	dot_pattern_expectancy	-1.0	n/a	cue	BY	s642	False
716.714	0.5	716.931	2.18	BY	1.0	71.0	dot_pattern_expectancy	71.0	0.217	probe	BY	s642	False
718.901	0.5	718.9	0.5	AX	n/a	n/a	dot_pattern_expectancy	-1.0	n/a	cue	AX	s642	False
721.412	0.5	721.95	1.5	AX	1.0	89.0	dot_pattern_expectancy	89.0	0.538	probe	AX	s642	False
722.918	0.5	722.917	0.5	AY	n/a	n/a	dot_pattern_expectancy	-1.0	n/a	cue	AY	s642	False
725.43	0.5	725.704	1.636	AY	0.0	71.0	dot_pattern_expectancy	89.0	0.274	probe	AY	s642	False
727.072	0.5	727.071	0.5	AX	n/a	n/a	dot_pattern_expectancy	-1.0	n/a	cue	AX	s642	False
729.584	0.5	729.885	1.636	AX	1.0	89.0	dot_pattern_expectancy	89.0	0.301	probe	AX	s642	False
