onset	duration	SS_delay	block_duration	correct	correct_response	experiment_exp_id	key_press	passed_check	response_time	stop_response	stopped	trial_id	trial_type	worker_id	junk
3.021	0.85	0.1	2.35	1.0	89.0	motor_selective_stop_signal	89.0	True	0.629	89.0	False	stim	crit_go	s642	False
5.376	0.85	0.1	2.25	1.0	89.0	motor_selective_stop_signal	89.0	True	0.518	89.0	False	stim	crit_go	s642	False
7.631	0.85	0.1	2.45	1.0	71.0	motor_selective_stop_signal	71.0	True	0.476	89.0	False	stim	noncrit_signal	s642	False
10.088	0.85	0.1	2.35	1.0	89.0	motor_selective_stop_signal	89.0	True	0.554	89.0	False	stim	crit_go	s642	False
12.444	0.85	0.1	2.65	1.0	71.0	motor_selective_stop_signal	71.0	True	0.724	89.0	False	stim	noncrit_signal	s642	False
15.1	0.85	0.1	2.25	1.0	89.0	motor_selective_stop_signal	89.0	True	0.523	89.0	False	stim	crit_go	s642	False
17.356	0.85	0.1	2.25	0.0	89.0	motor_selective_stop_signal	71.0	True	0.49	89.0	False	stim	crit_stop_failure	s642	False
19.611	0.85	0.05	2.45	1.0	71.0	motor_selective_stop_signal	71.0	True	0.645	89.0	False	stim	noncrit_nosignal	s642	False
22.067	0.85	0.05	2.25	1.0	71.0	motor_selective_stop_signal	71.0	True	0.494	89.0	False	stim	noncrit_nosignal	s642	False
24.323	0.85	0.05	2.55	1.0	89.0	motor_selective_stop_signal	-1.0	True	n/a	89.0	True	stim	crit_stop_success	s642	False
26.879	0.85	0.1	2.25	1.0	89.0	motor_selective_stop_signal	89.0	True	0.466	89.0	False	stim	crit_go	s642	False
29.135	0.85	0.1	2.35	1.0	71.0	motor_selective_stop_signal	71.0	True	0.603	89.0	False	stim	noncrit_signal	s642	False
31.491	0.85	0.1	2.25	1.0	89.0	motor_selective_stop_signal	89.0	True	0.674	89.0	False	stim	crit_stop_failure	s642	False
33.748	0.85	0.05	2.55	1.0	89.0	motor_selective_stop_signal	89.0	True	0.629	89.0	False	stim	crit_stop_failure	s642	False
36.303	0.85	0.0	2.55	1.0	71.0	motor_selective_stop_signal	71.0	True	0.623	89.0	False	stim	noncrit_nosignal	s642	False
38.858	0.85	0.0	2.35	1.0	89.0	motor_selective_stop_signal	89.0	True	0.565	89.0	False	stim	crit_go	s642	False
41.215	0.85	0.0	2.35	1.0	89.0	motor_selective_stop_signal	89.0	True	0.457	89.0	False	stim	crit_go	s642	False
43.57	0.85	0.0	2.25	1.0	71.0	motor_selective_stop_signal	71.0	True	0.497	89.0	False	stim	noncrit_nosignal	s642	False
45.825	0.85	0.0	2.45	1.0	71.0	motor_selective_stop_signal	71.0	True	0.473	89.0	False	stim	noncrit_signal	s642	False
48.281	0.85	0.0	2.25	1.0	71.0	motor_selective_stop_signal	71.0	True	0.512	89.0	False	stim	noncrit_nosignal	s642	False
50.536	0.85	0.0	2.45	1.0	71.0	motor_selective_stop_signal	71.0	True	0.566	89.0	False	stim	noncrit_signal	s642	False
52.992	0.85	0.0	2.65	1.0	89.0	motor_selective_stop_signal	89.0	True	0.535	89.0	False	stim	crit_stop_failure	s642	False
55.648	0.85	0.0	2.45	1.0	71.0	motor_selective_stop_signal	71.0	True	0.565	89.0	False	stim	noncrit_nosignal	s642	False
58.105	0.85	0.0	2.35	1.0	71.0	motor_selective_stop_signal	71.0	True	0.556	89.0	False	stim	noncrit_nosignal	s642	False
60.46	0.85	0.0	2.25	1.0	71.0	motor_selective_stop_signal	71.0	True	0.677	89.0	False	stim	noncrit_signal	s642	False
62.717	0.85	0.0	2.55	1.0	89.0	motor_selective_stop_signal	89.0	True	0.416	89.0	False	stim	crit_go	s642	False
65.272	0.85	0.0	2.25	0.0	71.0	motor_selective_stop_signal	89.0	True	0.383	89.0	False	stim	noncrit_nosignal	s642	False
67.527	0.85	0.0	2.25	1.0	89.0	motor_selective_stop_signal	89.0	True	0.62	89.0	False	stim	crit_go	s642	False
69.783	0.85	0.0	2.35	1.0	71.0	motor_selective_stop_signal	71.0	True	0.71	89.0	False	stim	noncrit_nosignal	s642	False
72.14	0.85	0.0	2.25	1.0	89.0	motor_selective_stop_signal	89.0	True	0.546	89.0	False	stim	crit_go	s642	False
74.394	0.85	0.0	2.65	1.0	71.0	motor_selective_stop_signal	71.0	True	0.678	89.0	False	stim	noncrit_signal	s642	False
77.051	0.85	0.0	2.35	1.0	71.0	motor_selective_stop_signal	71.0	True	0.704	89.0	False	stim	noncrit_signal	s642	False
79.406	0.85	0.0	2.45	1.0	71.0	motor_selective_stop_signal	71.0	True	0.713	89.0	False	stim	noncrit_nosignal	s642	False
81.862	0.85	0.0	2.35	1.0	71.0	motor_selective_stop_signal	71.0	True	0.491	89.0	False	stim	noncrit_signal	s642	False
84.218	0.85	0.0	2.25	1.0	89.0	motor_selective_stop_signal	89.0	True	0.551	89.0	False	stim	crit_stop_failure	s642	False
86.474	0.85	0.0	2.25	1.0	71.0	motor_selective_stop_signal	71.0	True	0.718	89.0	False	stim	noncrit_nosignal	s642	False
88.73	0.85	0.0	2.25	1.0	89.0	motor_selective_stop_signal	89.0	True	0.796	89.0	False	stim	crit_stop_failure	s642	False
90.986	0.85	0.0	2.25	1.0	89.0	motor_selective_stop_signal	89.0	True	0.527	89.0	False	stim	crit_go	s642	False
93.241	0.85	0.0	2.35	0.0	89.0	motor_selective_stop_signal	71.0	True	0.736	89.0	False	stim	crit_stop_failure	s642	False
95.597	0.85	0.0	3.35	1.0	89.0	motor_selective_stop_signal	89.0	True	0.658	89.0	False	stim	crit_go	s642	False
98.953	0.85	0.0	2.55	1.0	89.0	motor_selective_stop_signal	89.0	True	0.643	89.0	False	stim	crit_go	s642	False
101.509	0.85	0.0	2.75	1.0	89.0	motor_selective_stop_signal	-1.0	True	n/a	89.0	True	stim	crit_stop_success	s642	False
104.265	0.85	0.05	2.75	1.0	71.0	motor_selective_stop_signal	71.0	True	0.547	89.0	False	stim	noncrit_nosignal	s642	False
107.022	0.85	0.05	2.65	0.0	89.0	motor_selective_stop_signal	71.0	True	0.767	89.0	False	stim	crit_go	s642	False
109.677	0.85	0.05	2.45	1.0	89.0	motor_selective_stop_signal	-1.0	True	n/a	89.0	True	stim	crit_stop_success	s642	False
112.132	0.85	0.1	2.25	1.0	71.0	motor_selective_stop_signal	71.0	True	0.507	89.0	False	stim	noncrit_nosignal	s642	False
114.389	0.85	0.1	2.35	1.0	71.0	motor_selective_stop_signal	71.0	True	0.722	89.0	False	stim	noncrit_nosignal	s642	False
116.744	0.85	0.1	2.45	1.0	71.0	motor_selective_stop_signal	71.0	True	0.637	89.0	False	stim	noncrit_nosignal	s642	False
119.199	0.85	0.1	3.05	1.0	71.0	motor_selective_stop_signal	71.0	True	0.879	89.0	False	stim	noncrit_nosignal	s642	False
122.256	0.85	0.1	2.35	1.0	89.0	motor_selective_stop_signal	89.0	True	0.561	89.0	False	stim	crit_go	s642	False
135.128	0.85	0.1	2.25	1.0	71.0	motor_selective_stop_signal	71.0	True	1.297	89.0	False	stim	noncrit_signal	s642	False
137.384	0.85	0.1	2.35	0.0	71.0	motor_selective_stop_signal	89.0	True	0.569	89.0	False	stim	noncrit_nosignal	s642	False
139.74	0.85	0.1	2.35	1.0	71.0	motor_selective_stop_signal	71.0	True	0.528	89.0	False	stim	noncrit_nosignal	s642	False
142.096	0.85	0.1	2.35	1.0	71.0	motor_selective_stop_signal	71.0	True	0.568	89.0	False	stim	noncrit_nosignal	s642	False
144.453	0.85	0.1	2.35	1.0	71.0	motor_selective_stop_signal	71.0	True	0.768	89.0	False	stim	noncrit_signal	s642	False
146.809	0.85	0.1	2.35	1.0	89.0	motor_selective_stop_signal	89.0	True	0.504	89.0	False	stim	crit_go	s642	False
149.165	0.85	0.1	2.25	1.0	71.0	motor_selective_stop_signal	71.0	True	0.761	89.0	False	stim	noncrit_nosignal	s642	False
151.422	0.85	0.1	2.35	1.0	89.0	motor_selective_stop_signal	89.0	True	0.891	89.0	False	stim	crit_stop_failure	s642	False
153.777	0.85	0.05	2.45	1.0	71.0	motor_selective_stop_signal	71.0	True	0.6	89.0	False	stim	noncrit_nosignal	s642	False
156.234	0.85	0.05	2.35	1.0	89.0	motor_selective_stop_signal	89.0	True	0.661	89.0	False	stim	crit_go	s642	False
158.589	0.85	0.05	2.85	1.0	71.0	motor_selective_stop_signal	71.0	True	0.587	89.0	False	stim	noncrit_nosignal	s642	False
161.446	0.85	0.05	2.55	1.0	89.0	motor_selective_stop_signal	89.0	True	0.551	89.0	False	stim	crit_go	s642	False
164.002	0.85	0.05	2.75	1.0	89.0	motor_selective_stop_signal	89.0	True	0.554	89.0	False	stim	crit_go	s642	False
166.758	0.85	0.05	2.25	1.0	71.0	motor_selective_stop_signal	71.0	True	0.693	89.0	False	stim	noncrit_signal	s642	False
169.014	0.85	0.05	2.25	1.0	71.0	motor_selective_stop_signal	71.0	True	0.554	89.0	False	stim	noncrit_nosignal	s642	False
171.269	0.85	0.05	2.85	1.0	89.0	motor_selective_stop_signal	-1.0	True	n/a	89.0	True	stim	crit_stop_success	s642	False
174.125	0.85	0.1	2.35	1.0	89.0	motor_selective_stop_signal	89.0	True	0.557	89.0	False	stim	crit_go	s642	False
176.48	0.85	0.1	2.25	1.0	89.0	motor_selective_stop_signal	89.0	True	0.636	89.0	False	stim	crit_go	s642	False
178.736	0.85	0.1	2.25	1.0	89.0	motor_selective_stop_signal	-1.0	True	n/a	89.0	True	stim	crit_stop_success	s642	False
180.992	0.85	0.15	2.25	1.0	71.0	motor_selective_stop_signal	71.0	True	0.608	89.0	False	stim	noncrit_nosignal	s642	False
183.248	0.85	0.15	2.35	1.0	89.0	motor_selective_stop_signal	89.0	True	0.587	89.0	False	stim	crit_go	s642	False
185.605	0.85	0.15	2.65	1.0	71.0	motor_selective_stop_signal	71.0	True	0.651	89.0	False	stim	noncrit_nosignal	s642	False
188.259	0.85	0.15	2.75	1.0	89.0	motor_selective_stop_signal	-1.0	True	n/a	89.0	True	stim	crit_stop_success	s642	False
191.011	0.85	0.2	2.25	0.0	71.0	motor_selective_stop_signal	89.0	True	0.7	89.0	False	stim	noncrit_nosignal	s642	False
193.267	0.85	0.2	2.75	1.0	89.0	motor_selective_stop_signal	-1.0	True	n/a	89.0	True	stim	crit_stop_success	s642	False
196.023	0.85	0.25	2.25	1.0	71.0	motor_selective_stop_signal	71.0	True	0.565	89.0	False	stim	noncrit_signal	s642	False
198.275	0.85	0.25	2.35	1.0	71.0	motor_selective_stop_signal	71.0	True	0.878	89.0	False	stim	noncrit_nosignal	s642	False
200.632	0.85	0.25	2.35	1.0	71.0	motor_selective_stop_signal	71.0	True	0.649	89.0	False	stim	noncrit_nosignal	s642	False
202.987	0.85	0.25	2.55	1.0	71.0	motor_selective_stop_signal	71.0	True	0.661	89.0	False	stim	noncrit_nosignal	s642	False
205.543	0.85	0.25	2.25	1.0	89.0	motor_selective_stop_signal	89.0	True	0.749	89.0	False	stim	crit_go	s642	False
207.799	0.85	0.25	2.25	1.0	71.0	motor_selective_stop_signal	71.0	True	0.834	89.0	False	stim	noncrit_signal	s642	False
210.055	0.85	0.25	2.25	1.0	89.0	motor_selective_stop_signal	89.0	True	0.722	89.0	False	stim	crit_go	s642	False
212.311	0.85	0.25	2.35	1.0	89.0	motor_selective_stop_signal	89.0	True	0.46	89.0	False	stim	crit_go	s642	False
214.668	0.85	0.25	2.65	1.0	89.0	motor_selective_stop_signal	-1.0	True	n/a	89.0	True	stim	crit_stop_success	s642	False
217.323	0.85	0.3	2.35	1.0	71.0	motor_selective_stop_signal	71.0	True	0.798	89.0	False	stim	noncrit_nosignal	s642	False
219.678	0.85	0.3	2.25	1.0	71.0	motor_selective_stop_signal	71.0	True	0.773	89.0	False	stim	noncrit_signal	s642	False
221.935	0.85	0.3	2.35	1.0	89.0	motor_selective_stop_signal	89.0	True	0.676	89.0	False	stim	crit_go	s642	False
224.291	0.85	0.3	2.35	1.0	89.0	motor_selective_stop_signal	89.0	True	0.524	89.0	False	stim	crit_stop_failure	s642	False
226.647	0.85	0.25	2.85	1.0	71.0	motor_selective_stop_signal	71.0	True	0.828	89.0	False	stim	noncrit_nosignal	s642	False
229.502	0.85	0.25	2.45	1.0	71.0	motor_selective_stop_signal	71.0	True	0.527	89.0	False	stim	noncrit_nosignal	s642	False
231.959	0.85	0.25	2.35	1.0	89.0	motor_selective_stop_signal	89.0	True	0.492	89.0	False	stim	crit_go	s642	False
234.315	0.85	0.25	2.65	1.0	89.0	motor_selective_stop_signal	89.0	True	0.601	89.0	False	stim	crit_go	s642	False
236.969	0.85	0.25	2.25	0.0	71.0	motor_selective_stop_signal	89.0	True	0.592	89.0	False	stim	noncrit_nosignal	s642	False
239.225	0.85	0.25	2.25	1.0	71.0	motor_selective_stop_signal	71.0	True	1.372	89.0	False	stim	noncrit_signal	s642	False
241.481	0.85	0.25	2.25	1.0	89.0	motor_selective_stop_signal	89.0	True	0.575	89.0	False	stim	crit_go	s642	False
243.733	0.85	0.25	2.45	1.0	89.0	motor_selective_stop_signal	89.0	True	0.632	89.0	False	stim	crit_go	s642	False
246.189	0.85	0.25	2.35	1.0	89.0	motor_selective_stop_signal	89.0	True	0.504	89.0	False	stim	crit_go	s642	False
248.545	0.85	0.25	2.25	1.0	89.0	motor_selective_stop_signal	89.0	True	0.529	89.0	False	stim	crit_stop_failure	s642	False
250.801	0.85	0.2	2.35	1.0	89.0	motor_selective_stop_signal	-1.0	True	n/a	89.0	True	stim	crit_stop_success	s642	False
253.157	0.85	0.25	2.45	1.0	71.0	motor_selective_stop_signal	71.0	True	0.418	89.0	False	stim	noncrit_signal	s642	False
266.132	0.85	0.25	2.35	0.0	71.0	motor_selective_stop_signal	89.0	True	0.501	89.0	False	stim	noncrit_nosignal	s642	False
268.488	0.85	0.25	2.25	1.0	89.0	motor_selective_stop_signal	89.0	True	0.456	89.0	False	stim	crit_go	s642	False
270.744	0.85	0.25	2.25	1.0	89.0	motor_selective_stop_signal	89.0	True	0.569	89.0	False	stim	crit_go	s642	False
273.0	0.85	0.25	2.35	1.0	71.0	motor_selective_stop_signal	71.0	True	0.662	89.0	False	stim	noncrit_signal	s642	False
275.357	0.85	0.25	2.35	1.0	89.0	motor_selective_stop_signal	89.0	True	0.967	89.0	False	stim	crit_stop_failure	s642	False
277.713	0.85	0.2	2.35	1.0	71.0	motor_selective_stop_signal	71.0	True	0.62	89.0	False	stim	noncrit_nosignal	s642	False
280.069	0.85	0.2	2.95	1.0	71.0	motor_selective_stop_signal	71.0	True	0.916	89.0	False	stim	noncrit_nosignal	s642	False
283.025	0.85	0.2	2.25	1.0	71.0	motor_selective_stop_signal	71.0	True	0.624	89.0	False	stim	noncrit_nosignal	s642	False
285.282	0.85	0.2	2.35	1.0	89.0	motor_selective_stop_signal	89.0	True	0.555	89.0	False	stim	crit_go	s642	False
287.638	0.85	0.2	2.25	1.0	89.0	motor_selective_stop_signal	89.0	True	0.682	89.0	False	stim	crit_go	s642	False
289.894	0.85	0.2	2.45	1.0	71.0	motor_selective_stop_signal	71.0	True	0.924	89.0	False	stim	noncrit_signal	s642	False
292.35	0.85	0.2	2.35	1.0	71.0	motor_selective_stop_signal	71.0	True	0.584	89.0	False	stim	noncrit_signal	s642	False
294.705	0.85	0.2	2.55	1.0	71.0	motor_selective_stop_signal	71.0	True	0.525	89.0	False	stim	noncrit_signal	s642	False
297.261	0.85	0.2	2.55	1.0	89.0	motor_selective_stop_signal	89.0	True	0.576	89.0	False	stim	crit_go	s642	False
299.817	0.85	0.2	2.25	1.0	89.0	motor_selective_stop_signal	89.0	True	0.55	89.0	False	stim	crit_go	s642	False
302.073	0.85	0.2	2.25	1.0	89.0	motor_selective_stop_signal	89.0	True	0.569	89.0	False	stim	crit_go	s642	False
304.328	0.85	0.2	2.75	1.0	89.0	motor_selective_stop_signal	89.0	True	0.495	89.0	False	stim	crit_stop_failure	s642	False
307.082	0.85	0.15	2.35	1.0	89.0	motor_selective_stop_signal	-1.0	True	n/a	89.0	True	stim	crit_stop_success	s642	False
309.438	0.85	0.2	2.25	1.0	89.0	motor_selective_stop_signal	89.0	True	1.089	89.0	False	stim	crit_stop_failure	s642	False
311.694	0.85	0.15	2.45	1.0	89.0	motor_selective_stop_signal	89.0	True	0.737	89.0	False	stim	crit_go	s642	False
314.149	0.85	0.15	2.25	1.0	89.0	motor_selective_stop_signal	89.0	True	0.667	89.0	False	stim	crit_go	s642	False
316.406	0.85	0.15	2.35	1.0	71.0	motor_selective_stop_signal	71.0	True	0.674	89.0	False	stim	noncrit_nosignal	s642	False
318.761	0.85	0.15	2.25	1.0	89.0	motor_selective_stop_signal	89.0	True	0.62	89.0	False	stim	crit_go	s642	False
321.018	0.85	0.15	2.25	1.0	89.0	motor_selective_stop_signal	-1.0	True	n/a	89.0	True	stim	crit_stop_success	s642	False
323.274	0.85	0.2	2.25	1.0	89.0	motor_selective_stop_signal	-1.0	True	n/a	89.0	True	stim	crit_stop_success	s642	False
325.527	0.85	0.25	2.25	1.0	71.0	motor_selective_stop_signal	71.0	True	0.577	89.0	False	stim	noncrit_nosignal	s642	False
327.783	0.85	0.25	2.25	1.0	89.0	motor_selective_stop_signal	89.0	True	0.614	89.0	False	stim	crit_go	s642	False
330.04	0.85	0.25	2.35	1.0	71.0	motor_selective_stop_signal	71.0	True	1.458	89.0	False	stim	noncrit_signal	s642	False
332.396	0.85	0.25	2.55	1.0	89.0	motor_selective_stop_signal	89.0	True	0.975	89.0	False	stim	crit_stop_failure	s642	False
334.952	0.85	0.2	2.95	1.0	71.0	motor_selective_stop_signal	71.0	True	0.664	89.0	False	stim	noncrit_nosignal	s642	False
337.908	0.85	0.2	2.25	1.0	89.0	motor_selective_stop_signal	-1.0	True	n/a	89.0	True	stim	crit_stop_success	s642	False
340.164	0.85	0.25	2.35	1.0	71.0	motor_selective_stop_signal	71.0	True	0.55	89.0	False	stim	noncrit_nosignal	s642	False
342.52	0.85	0.25	2.55	1.0	89.0	motor_selective_stop_signal	89.0	True	0.892	89.0	False	stim	crit_go	s642	False
345.076	0.85	0.25	2.25	1.0	71.0	motor_selective_stop_signal	71.0	True	1.225	89.0	False	stim	noncrit_signal	s642	False
347.332	0.85	0.25	2.35	1.0	71.0	motor_selective_stop_signal	71.0	True	0.583	89.0	False	stim	noncrit_signal	s642	False
349.688	0.85	0.25	2.55	1.0	71.0	motor_selective_stop_signal	71.0	True	0.688	89.0	False	stim	noncrit_signal	s642	False
352.243	0.85	0.25	2.45	1.0	71.0	motor_selective_stop_signal	71.0	True	1.052	89.0	False	stim	noncrit_signal	s642	False
354.7	0.85	0.25	2.35	1.0	89.0	motor_selective_stop_signal	89.0	True	0.756	89.0	False	stim	crit_go	s642	False
357.056	0.85	0.25	2.65	1.0	71.0	motor_selective_stop_signal	71.0	True	0.765	89.0	False	stim	noncrit_nosignal	s642	False
359.712	0.85	0.25	2.55	1.0	71.0	motor_selective_stop_signal	71.0	True	0.761	89.0	False	stim	noncrit_nosignal	s642	False
362.268	0.85	0.25	2.75	1.0	89.0	motor_selective_stop_signal	-1.0	True	n/a	89.0	True	stim	crit_stop_success	s642	False
365.023	0.85	0.3	2.55	1.0	89.0	motor_selective_stop_signal	-1.0	True	n/a	89.0	True	stim	crit_stop_success	s642	False
367.578	0.85	0.35	2.45	1.0	71.0	motor_selective_stop_signal	71.0	True	0.534	89.0	False	stim	noncrit_signal	s642	False
370.034	0.85	0.35	2.75	1.0	89.0	motor_selective_stop_signal	89.0	True	0.617	89.0	False	stim	crit_go	s642	False
372.789	0.85	0.35	2.55	1.0	71.0	motor_selective_stop_signal	71.0	True	0.681	89.0	False	stim	noncrit_nosignal	s642	False
375.344	0.85	0.35	2.35	1.0	89.0	motor_selective_stop_signal	89.0	True	0.626	89.0	False	stim	crit_stop_failure	s642	False
377.7	0.85	0.3	2.25	1.0	71.0	motor_selective_stop_signal	71.0	True	0.595	89.0	False	stim	noncrit_nosignal	s642	False
379.955	0.85	0.3	2.65	1.0	71.0	motor_selective_stop_signal	71.0	True	0.808	89.0	False	stim	noncrit_nosignal	s642	False
382.612	0.85	0.3	2.25	1.0	89.0	motor_selective_stop_signal	-1.0	True	n/a	89.0	True	stim	crit_stop_success	s642	False
384.868	0.85	0.35	2.35	1.0	89.0	motor_selective_stop_signal	89.0	True	0.577	89.0	False	stim	crit_go	s642	False
397.741	0.85	0.35	2.25	1.0	71.0	motor_selective_stop_signal	71.0	True	0.617	89.0	False	stim	noncrit_nosignal	s642	False
399.998	0.85	0.35	2.35	1.0	89.0	motor_selective_stop_signal	89.0	True	0.513	89.0	False	stim	crit_go	s642	False
402.354	0.85	0.35	2.35	1.0	89.0	motor_selective_stop_signal	89.0	True	0.627	89.0	False	stim	crit_go	s642	False
404.71	0.85	0.35	2.25	1.0	71.0	motor_selective_stop_signal	71.0	True	0.673	89.0	False	stim	noncrit_nosignal	s642	False
406.966	0.85	0.35	2.85	1.0	71.0	motor_selective_stop_signal	71.0	True	0.558	89.0	False	stim	noncrit_signal	s642	False
409.822	0.85	0.35	2.35	1.0	89.0	motor_selective_stop_signal	89.0	True	0.612	89.0	False	stim	crit_go	s642	False
412.178	0.85	0.35	2.25	1.0	89.0	motor_selective_stop_signal	89.0	True	0.514	89.0	False	stim	crit_go	s642	False
414.435	0.85	0.35	2.35	1.0	71.0	motor_selective_stop_signal	71.0	True	0.58	89.0	False	stim	noncrit_nosignal	s642	False
416.791	0.85	0.35	2.45	1.0	71.0	motor_selective_stop_signal	71.0	True	0.628	89.0	False	stim	noncrit_nosignal	s642	False
419.246	0.85	0.35	2.25	1.0	89.0	motor_selective_stop_signal	89.0	True	0.645	89.0	False	stim	crit_stop_failure	s642	False
421.502	0.85	0.3	2.25	0.0	71.0	motor_selective_stop_signal	-1.0	True	n/a	89.0	True	stim	noncrit_signal	s642	False
423.757	0.85	0.3	2.75	1.0	89.0	motor_selective_stop_signal	89.0	True	0.81	89.0	False	stim	crit_go	s642	False
426.514	0.85	0.3	2.35	0.0	71.0	motor_selective_stop_signal	89.0	True	0.458	89.0	False	stim	noncrit_signal	s642	False
428.87	0.85	0.3	2.75	1.0	71.0	motor_selective_stop_signal	71.0	True	0.608	89.0	False	stim	noncrit_nosignal	s642	False
431.626	0.85	0.3	2.45	1.0	71.0	motor_selective_stop_signal	71.0	True	0.592	89.0	False	stim	noncrit_nosignal	s642	False
434.081	0.85	0.3	2.25	1.0	71.0	motor_selective_stop_signal	71.0	True	0.615	89.0	False	stim	noncrit_nosignal	s642	False
436.338	0.85	0.3	2.35	1.0	89.0	motor_selective_stop_signal	-1.0	True	n/a	89.0	True	stim	crit_stop_success	s642	False
438.69	0.85	0.35	2.65	1.0	71.0	motor_selective_stop_signal	71.0	True	0.644	89.0	False	stim	noncrit_nosignal	s642	False
441.346	0.85	0.35	2.45	1.0	89.0	motor_selective_stop_signal	-1.0	True	n/a	89.0	True	stim	crit_stop_success	s642	False
443.801	0.85	0.4	2.25	0.0	71.0	motor_selective_stop_signal	-1.0	True	n/a	89.0	True	stim	noncrit_nosignal	s642	False
446.058	0.85	0.4	2.35	1.0	71.0	motor_selective_stop_signal	71.0	True	0.536	89.0	False	stim	noncrit_signal	s642	False
448.414	0.85	0.4	2.95	1.0	71.0	motor_selective_stop_signal	71.0	True	0.7	89.0	False	stim	noncrit_signal	s642	False
451.37	0.85	0.4	2.25	1.0	71.0	motor_selective_stop_signal	71.0	True	0.647	89.0	False	stim	noncrit_nosignal	s642	False
453.626	0.85	0.4	2.95	0.0	89.0	motor_selective_stop_signal	71.0	True	0.892	89.0	False	stim	crit_go	s642	False
456.579	0.85	0.4	2.45	1.0	71.0	motor_selective_stop_signal	71.0	True	0.695	89.0	False	stim	noncrit_signal	s642	False
459.034	0.85	0.4	2.25	1.0	89.0	motor_selective_stop_signal	89.0	True	0.523	89.0	False	stim	crit_stop_failure	s642	False
461.29	0.85	0.35	2.35	1.0	71.0	motor_selective_stop_signal	71.0	True	0.636	89.0	False	stim	noncrit_nosignal	s642	False
463.645	0.85	0.35	2.45	1.0	71.0	motor_selective_stop_signal	71.0	True	0.77	89.0	False	stim	noncrit_nosignal	s642	False
466.101	0.85	0.35	2.25	1.0	89.0	motor_selective_stop_signal	89.0	True	0.758	89.0	False	stim	crit_stop_failure	s642	False
468.356	0.85	0.3	2.45	1.0	71.0	motor_selective_stop_signal	71.0	True	1.359	89.0	False	stim	noncrit_signal	s642	False
470.812	0.85	0.3	2.75	1.0	71.0	motor_selective_stop_signal	71.0	True	0.69	89.0	False	stim	noncrit_nosignal	s642	False
473.567	0.85	0.3	2.25	0.0	71.0	motor_selective_stop_signal	89.0	True	1.511	89.0	False	stim	noncrit_signal	s642	False
475.824	0.85	0.3	2.35	0.0	89.0	motor_selective_stop_signal	71.0	True	0.751	89.0	False	stim	crit_go	s642	False
478.179	0.85	0.3	2.45	1.0	71.0	motor_selective_stop_signal	71.0	True	0.931	89.0	False	stim	noncrit_signal	s642	False
480.635	0.85	0.3	2.35	1.0	89.0	motor_selective_stop_signal	89.0	True	0.633	89.0	False	stim	crit_go	s642	False
482.991	0.85	0.3	2.25	1.0	71.0	motor_selective_stop_signal	71.0	True	1.015	89.0	False	stim	noncrit_signal	s642	False
485.247	0.85	0.3	2.55	1.0	71.0	motor_selective_stop_signal	71.0	True	0.698	89.0	False	stim	noncrit_nosignal	s642	False
487.802	0.85	0.3	2.45	0.0	89.0	motor_selective_stop_signal	71.0	True	0.504	89.0	False	stim	crit_go	s642	False
490.258	0.85	0.3	2.65	1.0	71.0	motor_selective_stop_signal	71.0	True	0.59	89.0	False	stim	noncrit_nosignal	s642	False
492.914	0.85	0.3	2.25	1.0	89.0	motor_selective_stop_signal	-1.0	True	n/a	89.0	True	stim	crit_stop_success	s642	False
495.171	0.85	0.35	2.65	1.0	71.0	motor_selective_stop_signal	71.0	True	0.596	89.0	False	stim	noncrit_signal	s642	False
497.827	0.85	0.35	2.35	1.0	89.0	motor_selective_stop_signal	89.0	True	0.613	89.0	False	stim	crit_go	s642	False
500.183	0.85	0.35	2.25	0.0	89.0	motor_selective_stop_signal	71.0	True	0.658	89.0	False	stim	crit_go	s642	False
502.439	0.85	0.35	2.25	0.0	89.0	motor_selective_stop_signal	71.0	True	0.73	89.0	False	stim	crit_go	s642	False
504.695	0.85	0.35	2.25	1.0	71.0	motor_selective_stop_signal	71.0	True	0.693	89.0	False	stim	noncrit_nosignal	s642	False
506.952	0.85	0.35	2.35	1.0	89.0	motor_selective_stop_signal	89.0	True	0.693	89.0	False	stim	crit_go	s642	False
509.308	0.85	0.35	2.55	1.0	71.0	motor_selective_stop_signal	71.0	True	0.635	89.0	False	stim	noncrit_signal	s642	False
511.864	0.85	0.35	2.35	1.0	89.0	motor_selective_stop_signal	89.0	True	0.592	89.0	False	stim	crit_go	s642	False
514.221	0.85	0.35	2.45	1.0	89.0	motor_selective_stop_signal	89.0	True	0.464	89.0	False	stim	crit_stop_failure	s642	False
516.676	0.85	0.3	2.45	1.0	89.0	motor_selective_stop_signal	89.0	True	0.79	89.0	False	stim	crit_go	s642	False
529.65	0.85	0.3	2.35	1.0	89.0	motor_selective_stop_signal	-1.0	True	n/a	89.0	True	stim	crit_stop_success	s642	False
532.006	0.85	0.35	2.25	1.0	71.0	motor_selective_stop_signal	71.0	True	0.668	89.0	False	stim	noncrit_signal	s642	False
534.261	0.85	0.35	2.55	1.0	71.0	motor_selective_stop_signal	71.0	True	0.745	89.0	False	stim	noncrit_nosignal	s642	False
536.817	0.85	0.35	2.55	1.0	71.0	motor_selective_stop_signal	71.0	True	0.598	89.0	False	stim	noncrit_nosignal	s642	False
539.373	0.85	0.35	2.25	1.0	71.0	motor_selective_stop_signal	71.0	True	0.643	89.0	False	stim	noncrit_signal	s642	False
541.63	0.85	0.35	2.25	1.0	89.0	motor_selective_stop_signal	89.0	True	0.667	89.0	False	stim	crit_go	s642	False
543.886	0.85	0.35	2.45	1.0	89.0	motor_selective_stop_signal	-1.0	True	n/a	89.0	True	stim	crit_stop_success	s642	False
546.341	0.85	0.4	2.35	0.0	89.0	motor_selective_stop_signal	-1.0	True	n/a	89.0	True	stim	crit_go	s642	False
548.697	0.85	0.4	2.25	1.0	89.0	motor_selective_stop_signal	89.0	True	0.713	89.0	False	stim	crit_go	s642	False
550.952	0.85	0.4	3.15	1.0	89.0	motor_selective_stop_signal	89.0	True	0.567	89.0	False	stim	crit_go	s642	False
554.108	0.85	0.4	2.65	1.0	89.0	motor_selective_stop_signal	89.0	True	0.558	89.0	False	stim	crit_go	s642	False
556.764	0.85	0.4	2.25	1.0	71.0	motor_selective_stop_signal	71.0	True	0.748	89.0	False	stim	noncrit_signal	s642	False
559.02	0.85	0.4	2.45	1.0	89.0	motor_selective_stop_signal	89.0	True	0.612	89.0	False	stim	crit_stop_failure	s642	False
561.475	0.85	0.35	2.85	1.0	71.0	motor_selective_stop_signal	71.0	True	1.234	89.0	False	stim	noncrit_signal	s642	False
564.33	0.85	0.35	2.45	1.0	89.0	motor_selective_stop_signal	89.0	True	0.578	89.0	False	stim	crit_go	s642	False
566.786	0.85	0.35	2.25	1.0	89.0	motor_selective_stop_signal	89.0	True	0.602	89.0	False	stim	crit_go	s642	False
569.042	0.85	0.35	2.25	1.0	71.0	motor_selective_stop_signal	71.0	True	0.707	89.0	False	stim	noncrit_nosignal	s642	False
571.298	0.85	0.35	2.55	1.0	71.0	motor_selective_stop_signal	71.0	True	0.43	89.0	False	stim	noncrit_signal	s642	False
573.854	0.85	0.35	2.25	1.0	89.0	motor_selective_stop_signal	89.0	True	1.019	89.0	False	stim	crit_stop_failure	s642	False
576.11	0.85	0.3	2.35	1.0	71.0	motor_selective_stop_signal	71.0	True	0.627	89.0	False	stim	noncrit_nosignal	s642	False
578.467	0.85	0.3	2.35	1.0	89.0	motor_selective_stop_signal	-1.0	True	n/a	89.0	True	stim	crit_stop_success	s642	False
580.823	0.85	0.35	2.25	1.0	89.0	motor_selective_stop_signal	89.0	True	1.4	89.0	False	stim	crit_go	s642	False
583.079	0.85	0.35	2.35	1.0	71.0	motor_selective_stop_signal	71.0	True	0.635	89.0	False	stim	noncrit_signal	s642	False
585.435	0.85	0.35	2.25	1.0	89.0	motor_selective_stop_signal	89.0	True	0.803	89.0	False	stim	crit_go	s642	False
587.689	0.85	0.35	2.45	1.0	71.0	motor_selective_stop_signal	71.0	True	0.852	89.0	False	stim	noncrit_nosignal	s642	False
590.146	0.85	0.35	2.25	1.0	71.0	motor_selective_stop_signal	71.0	True	0.75	89.0	False	stim	noncrit_nosignal	s642	False
592.402	0.85	0.35	2.35	1.0	71.0	motor_selective_stop_signal	71.0	True	0.67	89.0	False	stim	noncrit_nosignal	s642	False
594.759	0.85	0.35	2.45	1.0	71.0	motor_selective_stop_signal	71.0	True	0.793	89.0	False	stim	noncrit_signal	s642	False
597.214	0.85	0.35	2.25	1.0	89.0	motor_selective_stop_signal	89.0	True	0.601	89.0	False	stim	crit_stop_failure	s642	False
599.469	0.85	0.3	2.25	0.0	89.0	motor_selective_stop_signal	71.0	True	0.518	89.0	False	stim	crit_go	s642	False
601.725	0.85	0.3	2.85	1.0	89.0	motor_selective_stop_signal	89.0	True	0.663	89.0	False	stim	crit_go	s642	False
604.581	0.85	0.3	2.25	1.0	71.0	motor_selective_stop_signal	71.0	True	0.621	89.0	False	stim	noncrit_nosignal	s642	False
606.836	0.85	0.3	3.45	1.0	89.0	motor_selective_stop_signal	89.0	True	0.735	89.0	False	stim	crit_go	s642	False
610.292	0.85	0.3	2.35	1.0	71.0	motor_selective_stop_signal	71.0	True	0.942	89.0	False	stim	noncrit_signal	s642	False
612.648	0.85	0.3	2.35	1.0	71.0	motor_selective_stop_signal	71.0	True	1.108	89.0	False	stim	noncrit_signal	s642	False
615.005	0.85	0.3	2.35	1.0	71.0	motor_selective_stop_signal	71.0	True	0.919	89.0	False	stim	noncrit_nosignal	s642	False
617.361	0.85	0.3	2.45	0.0	89.0	motor_selective_stop_signal	71.0	True	0.656	89.0	False	stim	crit_stop_failure	s642	False
619.817	0.85	0.25	2.55	1.0	71.0	motor_selective_stop_signal	71.0	True	0.93	89.0	False	stim	noncrit_signal	s642	False
622.374	0.85	0.25	2.35	1.0	71.0	motor_selective_stop_signal	71.0	True	0.67	89.0	False	stim	noncrit_nosignal	s642	False
624.727	0.85	0.25	2.25	1.0	89.0	motor_selective_stop_signal	89.0	True	0.755	89.0	False	stim	crit_stop_failure	s642	False
626.981	0.85	0.2	2.25	0.0	89.0	motor_selective_stop_signal	71.0	True	0.633	89.0	False	stim	crit_go	s642	False
629.238	0.85	0.2	3.05	1.0	71.0	motor_selective_stop_signal	71.0	True	0.654	89.0	False	stim	noncrit_nosignal	s642	False
632.294	0.85	0.2	2.45	1.0	89.0	motor_selective_stop_signal	89.0	True	0.681	89.0	False	stim	crit_go	s642	False
634.751	0.85	0.2	2.35	0.0	89.0	motor_selective_stop_signal	71.0	True	0.579	89.0	False	stim	crit_go	s642	False
637.106	0.85	0.2	2.25	1.0	89.0	motor_selective_stop_signal	-1.0	True	n/a	89.0	True	stim	crit_stop_success	s642	False
639.36	0.85	0.25	3.25	1.0	89.0	motor_selective_stop_signal	89.0	True	0.765	89.0	False	stim	crit_stop_failure	s642	False
642.614	0.85	0.2	2.95	1.0	71.0	motor_selective_stop_signal	71.0	True	0.852	89.0	False	stim	noncrit_nosignal	s642	False
645.57	0.85	0.2	2.55	1.0	89.0	motor_selective_stop_signal	89.0	True	0.603	89.0	False	stim	crit_stop_failure	s642	False
648.127	0.85	0.15	2.35	1.0	71.0	motor_selective_stop_signal	71.0	True	0.666	89.0	False	stim	noncrit_nosignal	s642	False
650.483	0.85	0.15	2.55	1.0	89.0	motor_selective_stop_signal	-1.0	True	n/a	89.0	True	stim	crit_stop_success	s642	False
