duration	onset	block_duration	movement_onset	planning	condition	exp_stage	experiment_exp_id	key_press	problem_id	response_time	trial_id	trial_type	worker_id	junk
7.36	3.014	7.36	10.374	1	UA_with_intermediate	practice	ward_and_allport	71	0.0	7.36	to_hand	poldrack-single-stim	s646	False
0.1	10.375	0.755	11.13	0	UA_with_intermediate	practice	ward_and_allport	82	0.0	0.755	to_board	poldrack-single-stim	s646	False
0.1	11.133	0.568	11.701	0	UA_with_intermediate	practice	ward_and_allport	71	0.0	0.568	to_hand	poldrack-single-stim	s646	False
0.1	11.702	0.74	12.442	0	UA_with_intermediate	practice	ward_and_allport	89	0.0	0.74	to_board	poldrack-single-stim	s646	False
0.1	12.444	0.618	13.062	0	UA_with_intermediate	practice	ward_and_allport	82	0.0	0.618	to_hand	poldrack-single-stim	s646	False
0.1	13.063	0.494	13.557	0	UA_with_intermediate	practice	ward_and_allport	89	0.0	0.494	to_board	poldrack-single-stim	s646	False
1.0	13.564	2.5	13.563	0	UA_with_intermediate	practice	ward_and_allport	-1	0.0	n/a	feedback	poldrack-single-stim	s646	False
2.973	16.066	2.973	19.039	1	UA_with_intermediate	practice	ward_and_allport	89	1.0	2.973	to_hand	poldrack-single-stim	s646	False
0.1	19.04	0.797	19.837	0	UA_with_intermediate	practice	ward_and_allport	82	1.0	0.797	to_board	poldrack-single-stim	s646	False
0.1	19.839	0.563	20.402	0	UA_with_intermediate	practice	ward_and_allport	71	1.0	0.563	to_hand	poldrack-single-stim	s646	False
0.1	20.403	0.521	20.924	0	UA_with_intermediate	practice	ward_and_allport	89	1.0	0.521	to_board	poldrack-single-stim	s646	False
0.1	20.927	0.463	21.39	0	UA_with_intermediate	practice	ward_and_allport	82	1.0	0.463	to_hand	poldrack-single-stim	s646	False
0.1	21.39	0.438	21.828	0	UA_with_intermediate	practice	ward_and_allport	89	1.0	0.438	to_board	poldrack-single-stim	s646	False
1.0	21.834	2.1	21.833	0	UA_with_intermediate	practice	ward_and_allport	-1	1.0	n/a	feedback	poldrack-single-stim	s646	False
2.331	23.936	2.331	26.267	1	UA_without_intermediate	practice	ward_and_allport	82	2.0	2.331	to_hand	poldrack-single-stim	s646	False
0.1	26.269	0.539	26.808	0	UA_without_intermediate	practice	ward_and_allport	89	2.0	0.539	to_board	poldrack-single-stim	s646	False
0.1	26.811	0.464	27.275	0	UA_without_intermediate	practice	ward_and_allport	71	2.0	0.464	to_hand	poldrack-single-stim	s646	False
0.1	27.277	0.462	27.739	0	UA_without_intermediate	practice	ward_and_allport	89	2.0	0.462	to_board	poldrack-single-stim	s646	False
0.1	27.741	1.053	28.794	0	UA_without_intermediate	practice	ward_and_allport	71	2.0	1.053	to_hand	poldrack-single-stim	s646	False
0.1	28.796	0.397	29.193	0	UA_without_intermediate	practice	ward_and_allport	89	2.0	0.397	to_board	poldrack-single-stim	s646	False
1.0	29.196	2.2	29.195	0	UA_without_intermediate	practice	ward_and_allport	-1	2.0	n/a	feedback	poldrack-single-stim	s646	False
2.64	31.4	2.64	34.04	1	UA_without_intermediate	practice	ward_and_allport	71	3.0	2.64	to_hand	poldrack-single-stim	s646	False
0.1	34.042	0.537	34.579	0	UA_without_intermediate	practice	ward_and_allport	89	3.0	0.537	to_board	poldrack-single-stim	s646	False
0.1	34.58	0.541	35.121	0	UA_without_intermediate	practice	ward_and_allport	82	3.0	0.541	to_hand	poldrack-single-stim	s646	False
0.1	35.122	0.727	35.849	0	UA_without_intermediate	practice	ward_and_allport	89	3.0	0.727	to_board	poldrack-single-stim	s646	False
0.1	35.851	0.162	36.013	0	UA_without_intermediate	practice	ward_and_allport	89	3.0	0.162	to_hand	poldrack-single-stim	s646	False
0.1	36.014	0.302	36.316	0	UA_without_intermediate	practice	ward_and_allport	71	3.0	0.302	to_board	poldrack-single-stim	s646	False
0.1	36.319	0.555	36.874	0	UA_without_intermediate	practice	ward_and_allport	89	3.0	0.555	to_hand	poldrack-single-stim	s646	False
0.1	36.875	1.337	38.212	0	UA_without_intermediate	practice	ward_and_allport	89	3.0	1.337	to_board	poldrack-single-stim	s646	False
0.1	38.214	0.879	39.093	0	UA_without_intermediate	practice	ward_and_allport	71	3.0	0.879	to_hand	poldrack-single-stim	s646	False
0.1	39.095	0.536	39.631	0	UA_without_intermediate	practice	ward_and_allport	89	3.0	0.536	to_board	poldrack-single-stim	s646	False
0.1	39.633	1.112	40.745	0	UA_without_intermediate	practice	ward_and_allport	71	3.0	1.112	to_hand	poldrack-single-stim	s646	False
0.1	40.747	0.438	41.185	0	UA_without_intermediate	practice	ward_and_allport	89	3.0	0.438	to_board	poldrack-single-stim	s646	False
1.0	41.192	2.0	41.191	0	UA_without_intermediate	practice	ward_and_allport	-1	3.0	n/a	feedback	poldrack-single-stim	s646	False
3.488	45.204	3.488	48.692	1	PA_with_intermediate	test	ward_and_allport	82	0.0	3.488	to_hand	poldrack-single-stim	s646	False
0.1	48.694	0.615	49.309	0	PA_with_intermediate	test	ward_and_allport	89	0.0	0.615	to_board	poldrack-single-stim	s646	False
0.1	49.313	0.96	50.273	0	PA_with_intermediate	test	ward_and_allport	82	0.0	0.96	to_hand	poldrack-single-stim	s646	False
0.1	50.275	0.524	50.799	0	PA_with_intermediate	test	ward_and_allport	71	0.0	0.524	to_board	poldrack-single-stim	s646	False
0.1	50.802	1.403	52.205	0	PA_with_intermediate	test	ward_and_allport	89	0.0	1.403	to_hand	poldrack-single-stim	s646	False
0.1	52.206	0.538	52.744	0	PA_with_intermediate	test	ward_and_allport	82	0.0	0.538	to_board	poldrack-single-stim	s646	False
1.0	52.752	2.408	52.751	0	PA_with_intermediate	test	ward_and_allport	-1	0.0	n/a	feedback	poldrack-single-stim	s646	False
4.127	55.163	4.127	59.29	1	PA_without_intermediate	test	ward_and_allport	82	1.0	4.127	to_hand	poldrack-single-stim	s646	False
0.1	59.292	0.906	60.198	0	PA_without_intermediate	test	ward_and_allport	71	1.0	0.906	to_board	poldrack-single-stim	s646	False
0.1	60.201	1.213	61.414	0	PA_without_intermediate	test	ward_and_allport	82	1.0	1.213	to_hand	poldrack-single-stim	s646	False
0.1	61.415	0.751	62.166	0	PA_without_intermediate	test	ward_and_allport	71	1.0	0.751	to_board	poldrack-single-stim	s646	False
0.1	62.168	0.965	63.133	0	PA_without_intermediate	test	ward_and_allport	82	1.0	0.965	to_hand	poldrack-single-stim	s646	False
0.1	63.135	0.812	63.947	0	PA_without_intermediate	test	ward_and_allport	89	1.0	0.812	to_board	poldrack-single-stim	s646	False
1.0	63.953	2.68	63.952	0	PA_without_intermediate	test	ward_and_allport	-1	1.0	n/a	feedback	poldrack-single-stim	s646	False
3.497	66.636	3.497	70.133	1	PA_with_intermediate	test	ward_and_allport	89	2.0	3.497	to_hand	poldrack-single-stim	s646	False
0.1	70.134	0.447	70.581	0	PA_with_intermediate	test	ward_and_allport	71	2.0	0.447	to_board	poldrack-single-stim	s646	False
0.1	70.584	0.667	71.251	0	PA_with_intermediate	test	ward_and_allport	89	2.0	0.667	to_hand	poldrack-single-stim	s646	False
0.1	71.252	0.911	72.163	0	PA_with_intermediate	test	ward_and_allport	82	2.0	0.911	to_board	poldrack-single-stim	s646	False
0.1	72.166	0.694	72.86	0	PA_with_intermediate	test	ward_and_allport	71	2.0	0.694	to_hand	poldrack-single-stim	s646	False
0.1	72.861	0.499	73.36	0	PA_with_intermediate	test	ward_and_allport	82	2.0	0.499	to_board	poldrack-single-stim	s646	False
1.0	73.368	4.72	73.367	0	PA_with_intermediate	test	ward_and_allport	-1	2.0	n/a	feedback	poldrack-single-stim	s646	False
2.546	78.092	2.546	80.638	1	PA_without_intermediate	test	ward_and_allport	82	3.0	2.546	to_hand	poldrack-single-stim	s646	False
0.1	80.639	0.967	81.606	0	PA_without_intermediate	test	ward_and_allport	89	3.0	0.967	to_board	poldrack-single-stim	s646	False
0.1	81.609	0.648	82.257	0	PA_without_intermediate	test	ward_and_allport	82	3.0	0.648	to_hand	poldrack-single-stim	s646	False
0.1	82.259	0.643	82.902	0	PA_without_intermediate	test	ward_and_allport	89	3.0	0.643	to_board	poldrack-single-stim	s646	False
0.1	82.906	0.726	83.632	0	PA_without_intermediate	test	ward_and_allport	82	3.0	0.726	to_hand	poldrack-single-stim	s646	False
0.1	83.633	1.205	84.838	0	PA_without_intermediate	test	ward_and_allport	71	3.0	1.205	to_board	poldrack-single-stim	s646	False
1.0	84.846	3.224	84.845	0	PA_without_intermediate	test	ward_and_allport	-1	3.0	n/a	feedback	poldrack-single-stim	s646	False
2.31	88.075	2.31	90.385	1	PA_without_intermediate	test	ward_and_allport	89	4.0	2.31	to_hand	poldrack-single-stim	s646	False
0.1	90.386	0.469	90.855	0	PA_without_intermediate	test	ward_and_allport	71	4.0	0.469	to_board	poldrack-single-stim	s646	False
0.1	90.859	1.685	92.544	0	PA_without_intermediate	test	ward_and_allport	89	4.0	1.685	to_hand	poldrack-single-stim	s646	False
0.1	92.546	0.437	92.983	0	PA_without_intermediate	test	ward_and_allport	71	4.0	0.437	to_board	poldrack-single-stim	s646	False
0.1	92.986	0.574	93.56	0	PA_without_intermediate	test	ward_and_allport	89	4.0	0.574	to_hand	poldrack-single-stim	s646	False
0.1	93.562	0.491	94.053	0	PA_without_intermediate	test	ward_and_allport	82	4.0	0.491	to_board	poldrack-single-stim	s646	False
1.0	94.061	2.272	94.06	0	PA_without_intermediate	test	ward_and_allport	-1	4.0	n/a	feedback	poldrack-single-stim	s646	False
4.205	96.337	4.205	100.542	1	PA_with_intermediate	test	ward_and_allport	89	5.0	4.205	to_hand	poldrack-single-stim	s646	False
0.1	100.544	0.938	101.482	0	PA_with_intermediate	test	ward_and_allport	71	5.0	0.938	to_board	poldrack-single-stim	s646	False
0.1	101.486	0.563	102.049	0	PA_with_intermediate	test	ward_and_allport	89	5.0	0.563	to_hand	poldrack-single-stim	s646	False
0.1	102.05	0.506	102.556	0	PA_with_intermediate	test	ward_and_allport	82	5.0	0.506	to_board	poldrack-single-stim	s646	False
0.1	102.559	1.699	104.258	0	PA_with_intermediate	test	ward_and_allport	71	5.0	1.699	to_hand	poldrack-single-stim	s646	False
0.1	104.259	0.591	104.85	0	PA_with_intermediate	test	ward_and_allport	89	5.0	0.591	to_board	poldrack-single-stim	s646	False
1.0	104.855	3.632	104.854	0	PA_with_intermediate	test	ward_and_allport	-1	5.0	n/a	feedback	poldrack-single-stim	s646	False
2.467	108.492	2.467	110.959	1	PA_without_intermediate	test	ward_and_allport	71	6.0	2.467	to_hand	poldrack-single-stim	s646	False
0.1	110.96	0.888	111.848	0	PA_without_intermediate	test	ward_and_allport	82	6.0	0.888	to_board	poldrack-single-stim	s646	False
0.1	111.851	0.662	112.513	0	PA_without_intermediate	test	ward_and_allport	71	6.0	0.662	to_hand	poldrack-single-stim	s646	False
0.1	112.514	0.374	112.888	0	PA_without_intermediate	test	ward_and_allport	82	6.0	0.374	to_board	poldrack-single-stim	s646	False
0.1	112.892	1.006	113.898	0	PA_without_intermediate	test	ward_and_allport	71	6.0	1.006	to_hand	poldrack-single-stim	s646	False
0.1	113.899	0.443	114.342	0	PA_without_intermediate	test	ward_and_allport	89	6.0	0.443	to_board	poldrack-single-stim	s646	False
1.0	114.35	2.408	114.349	0	PA_without_intermediate	test	ward_and_allport	-1	6.0	n/a	feedback	poldrack-single-stim	s646	False
1.55	116.763	1.55	118.313	1	PA_without_intermediate	test	ward_and_allport	89	7.0	1.55	to_hand	poldrack-single-stim	s646	False
0.1	118.315	0.483	118.798	0	PA_without_intermediate	test	ward_and_allport	82	7.0	0.483	to_board	poldrack-single-stim	s646	False
0.1	118.803	1.183	119.986	0	PA_without_intermediate	test	ward_and_allport	89	7.0	1.183	to_hand	poldrack-single-stim	s646	False
0.1	119.988	0.43	120.418	0	PA_without_intermediate	test	ward_and_allport	71	7.0	0.43	to_board	poldrack-single-stim	s646	False
0.1	120.422	0.47	120.892	0	PA_without_intermediate	test	ward_and_allport	89	7.0	0.47	to_hand	poldrack-single-stim	s646	False
0.1	120.893	0.436	121.329	0	PA_without_intermediate	test	ward_and_allport	82	7.0	0.436	to_board	poldrack-single-stim	s646	False
1.0	121.337	2.0	121.336	0	PA_without_intermediate	test	ward_and_allport	-1	7.0	n/a	feedback	poldrack-single-stim	s646	False
1.732	123.341	1.732	125.073	1	PA_with_intermediate	test	ward_and_allport	71	8.0	1.732	to_hand	poldrack-single-stim	s646	False
0.1	125.074	0.823	125.897	0	PA_with_intermediate	test	ward_and_allport	89	8.0	0.823	to_board	poldrack-single-stim	s646	False
0.1	125.902	3.438	129.34	0	PA_with_intermediate	test	ward_and_allport	89	8.0	3.438	to_hand	poldrack-single-stim	s646	False
0.1	129.34	0.369	129.709	0	PA_with_intermediate	test	ward_and_allport	82	8.0	0.369	to_board	poldrack-single-stim	s646	False
0.1	129.714	0.955	130.669	0	PA_with_intermediate	test	ward_and_allport	71	8.0	0.955	to_hand	poldrack-single-stim	s646	False
0.1	130.669	1.057	131.726	0	PA_with_intermediate	test	ward_and_allport	89	8.0	1.057	to_board	poldrack-single-stim	s646	False
0.1	131.73	0.135	131.865	0	PA_with_intermediate	test	ward_and_allport	89	8.0	0.135	to_hand	poldrack-single-stim	s646	False
0.1	131.867	2.734	134.601	0	PA_with_intermediate	test	ward_and_allport	89	8.0	2.734	to_board	poldrack-single-stim	s646	False
0.1	134.605	2.823	137.428	0	PA_with_intermediate	test	ward_and_allport	82	8.0	2.823	to_hand	poldrack-single-stim	s646	False
0.1	137.429	0.363	137.792	0	PA_with_intermediate	test	ward_and_allport	89	8.0	0.363	to_board	poldrack-single-stim	s646	False
1.0	137.798	2.0	137.797	0	PA_with_intermediate	test	ward_and_allport	-1	8.0	n/a	feedback	poldrack-single-stim	s646	False
2.806	139.804	2.806	142.61	1	PA_with_intermediate	test	ward_and_allport	82	9.0	2.806	to_hand	poldrack-single-stim	s646	False
0.1	142.611	0.686	143.297	0	PA_with_intermediate	test	ward_and_allport	89	9.0	0.686	to_board	poldrack-single-stim	s646	False
0.1	143.301	1.95	145.251	0	PA_with_intermediate	test	ward_and_allport	89	9.0	1.95	to_hand	poldrack-single-stim	s646	False
0.1	145.252	0.256	145.508	0	PA_with_intermediate	test	ward_and_allport	71	9.0	0.256	to_board	poldrack-single-stim	s646	False
0.1	145.513	0.999	146.512	0	PA_with_intermediate	test	ward_and_allport	82	9.0	0.999	to_hand	poldrack-single-stim	s646	False
0.1	146.514	0.921	147.435	0	PA_with_intermediate	test	ward_and_allport	89	9.0	0.921	to_board	poldrack-single-stim	s646	False
0.1	147.44	1.598	149.038	0	PA_with_intermediate	test	ward_and_allport	71	9.0	1.598	to_hand	poldrack-single-stim	s646	False
0.1	149.04	0.389	149.429	0	PA_with_intermediate	test	ward_and_allport	89	9.0	0.389	to_board	poldrack-single-stim	s646	False
1.0	149.435	2.0	149.434	0	PA_with_intermediate	test	ward_and_allport	-1	9.0	n/a	feedback	poldrack-single-stim	s646	False
1.451	151.441	1.451	152.892	1	PA_with_intermediate	test	ward_and_allport	82	10.0	1.451	to_hand	poldrack-single-stim	s646	False
0.1	152.893	2.309	155.202	0	PA_with_intermediate	test	ward_and_allport	71	10.0	2.309	to_board	poldrack-single-stim	s646	False
0.1	155.206	0.656	155.862	0	PA_with_intermediate	test	ward_and_allport	82	10.0	0.656	to_hand	poldrack-single-stim	s646	False
0.1	155.863	1.044	156.907	0	PA_with_intermediate	test	ward_and_allport	89	10.0	1.044	to_board	poldrack-single-stim	s646	False
0.1	156.913	1.446	158.359	0	PA_with_intermediate	test	ward_and_allport	71	10.0	1.446	to_hand	poldrack-single-stim	s646	False
0.1	158.361	0.614	158.975	0	PA_with_intermediate	test	ward_and_allport	89	10.0	0.614	to_board	poldrack-single-stim	s646	False
1.0	158.983	2.408	158.982	0	PA_with_intermediate	test	ward_and_allport	-1	10.0	n/a	feedback	poldrack-single-stim	s646	False
1.564	161.397	1.564	162.961	1	PA_without_intermediate	test	ward_and_allport	82	11.0	1.564	to_hand	poldrack-single-stim	s646	False
0.1	162.963	0.663	163.626	0	PA_without_intermediate	test	ward_and_allport	71	11.0	0.663	to_board	poldrack-single-stim	s646	False
0.1	163.631	1.018	164.649	0	PA_without_intermediate	test	ward_and_allport	82	11.0	1.018	to_hand	poldrack-single-stim	s646	False
0.1	164.649	0.814	165.463	0	PA_without_intermediate	test	ward_and_allport	71	11.0	0.814	to_board	poldrack-single-stim	s646	False
0.1	165.469	0.937	166.406	0	PA_without_intermediate	test	ward_and_allport	82	11.0	0.937	to_hand	poldrack-single-stim	s646	False
0.1	166.407	0.574	166.981	0	PA_without_intermediate	test	ward_and_allport	89	11.0	0.574	to_board	poldrack-single-stim	s646	False
1.0	166.991	2.816	166.99	0	PA_without_intermediate	test	ward_and_allport	-1	11.0	n/a	feedback	poldrack-single-stim	s646	False
1.552	169.814	1.552	171.366	1	PA_with_intermediate	test	ward_and_allport	82	12.0	1.552	to_hand	poldrack-single-stim	s646	False
0.1	171.367	2.093	173.46	0	PA_with_intermediate	test	ward_and_allport	89	12.0	2.093	to_board	poldrack-single-stim	s646	False
0.1	173.466	0.748	174.214	0	PA_with_intermediate	test	ward_and_allport	82	12.0	0.748	to_hand	poldrack-single-stim	s646	False
0.1	174.215	1.83	176.045	0	PA_with_intermediate	test	ward_and_allport	71	12.0	1.83	to_board	poldrack-single-stim	s646	False
0.1	176.051	0.72	176.771	0	PA_with_intermediate	test	ward_and_allport	89	12.0	0.72	to_hand	poldrack-single-stim	s646	False
0.1	176.773	0.588	177.361	0	PA_with_intermediate	test	ward_and_allport	71	12.0	0.588	to_board	poldrack-single-stim	s646	False
1.0	177.37	4.176	177.369	0	PA_with_intermediate	test	ward_and_allport	-1	12.0	n/a	feedback	poldrack-single-stim	s646	False
2.644	181.552	2.644	184.196	1	PA_with_intermediate	test	ward_and_allport	71	13.0	2.644	to_hand	poldrack-single-stim	s646	False
0.1	184.198	3.127	187.325	0	PA_with_intermediate	test	ward_and_allport	89	13.0	3.127	to_board	poldrack-single-stim	s646	False
0.1	187.331	0.733	188.064	0	PA_with_intermediate	test	ward_and_allport	71	13.0	0.733	to_hand	poldrack-single-stim	s646	False
0.1	188.066	0.769	188.835	0	PA_with_intermediate	test	ward_and_allport	82	13.0	0.769	to_board	poldrack-single-stim	s646	False
0.1	188.839	0.886	189.725	0	PA_with_intermediate	test	ward_and_allport	89	13.0	0.886	to_hand	poldrack-single-stim	s646	False
0.1	189.727	0.786	190.513	0	PA_with_intermediate	test	ward_and_allport	82	13.0	0.786	to_board	poldrack-single-stim	s646	False
1.0	190.521	3.36	190.52	0	PA_with_intermediate	test	ward_and_allport	-1	13.0	n/a	feedback	poldrack-single-stim	s646	False
2.842	193.885	2.842	196.727	1	PA_with_intermediate	test	ward_and_allport	89	14.0	2.842	to_hand	poldrack-single-stim	s646	False
0.1	196.728	0.814	197.542	0	PA_with_intermediate	test	ward_and_allport	82	14.0	0.814	to_board	poldrack-single-stim	s646	False
0.1	197.548	1.096	198.644	0	PA_with_intermediate	test	ward_and_allport	89	14.0	1.096	to_hand	poldrack-single-stim	s646	False
0.1	198.645	1.19	199.835	0	PA_with_intermediate	test	ward_and_allport	71	14.0	1.19	to_board	poldrack-single-stim	s646	False
0.1	199.84	1.667	201.507	0	PA_with_intermediate	test	ward_and_allport	82	14.0	1.667	to_hand	poldrack-single-stim	s646	False
0.1	201.508	0.391	201.899	0	PA_with_intermediate	test	ward_and_allport	71	14.0	0.391	to_board	poldrack-single-stim	s646	False
1.0	201.908	2.0	201.907	0	PA_with_intermediate	test	ward_and_allport	-1	14.0	n/a	feedback	poldrack-single-stim	s646	False
1.684	208.921	1.684	210.605	1	PA_without_intermediate	test	ward_and_allport	71	15.0	1.684	to_hand	poldrack-single-stim	s646	False
0.1	210.607	1.075	211.682	0	PA_without_intermediate	test	ward_and_allport	89	15.0	1.075	to_board	poldrack-single-stim	s646	False
0.1	211.688	0.742	212.43	0	PA_without_intermediate	test	ward_and_allport	71	15.0	0.742	to_hand	poldrack-single-stim	s646	False
0.1	212.432	0.512	212.944	0	PA_without_intermediate	test	ward_and_allport	82	15.0	0.512	to_board	poldrack-single-stim	s646	False
0.1	212.949	0.873	213.822	0	PA_without_intermediate	test	ward_and_allport	71	15.0	0.873	to_hand	poldrack-single-stim	s646	False
0.1	213.824	0.837	214.661	0	PA_without_intermediate	test	ward_and_allport	89	15.0	0.837	to_board	poldrack-single-stim	s646	False
1.0	214.667	2.408	214.666	0	PA_without_intermediate	test	ward_and_allport	-1	15.0	n/a	feedback	poldrack-single-stim	s646	False
6.749	217.08	6.749	223.829	1	PA_with_intermediate	test	ward_and_allport	71	16.0	6.749	to_hand	poldrack-single-stim	s646	False
0.1	223.83	0.649	224.479	0	PA_with_intermediate	test	ward_and_allport	89	16.0	0.649	to_board	poldrack-single-stim	s646	False
0.1	224.485	0.577	225.062	0	PA_with_intermediate	test	ward_and_allport	71	16.0	0.577	to_hand	poldrack-single-stim	s646	False
0.1	225.064	1.013	226.077	0	PA_with_intermediate	test	ward_and_allport	82	16.0	1.013	to_board	poldrack-single-stim	s646	False
0.1	226.081	0.735	226.816	0	PA_with_intermediate	test	ward_and_allport	89	16.0	0.735	to_hand	poldrack-single-stim	s646	False
0.1	226.818	0.498	227.316	0	PA_with_intermediate	test	ward_and_allport	71	16.0	0.498	to_board	poldrack-single-stim	s646	False
1.0	227.326	2.816	227.325	0	PA_with_intermediate	test	ward_and_allport	-1	16.0	n/a	feedback	poldrack-single-stim	s646	False
1.886	230.149	1.886	232.035	1	PA_without_intermediate	test	ward_and_allport	71	17.0	1.886	to_hand	poldrack-single-stim	s646	False
0.1	232.037	1.574	233.611	0	PA_without_intermediate	test	ward_and_allport	89	17.0	1.574	to_board	poldrack-single-stim	s646	False
0.1	233.617	0.392	234.009	0	PA_without_intermediate	test	ward_and_allport	71	17.0	0.392	to_hand	poldrack-single-stim	s646	False
0.1	234.011	0.486	234.497	0	PA_without_intermediate	test	ward_and_allport	82	17.0	0.486	to_board	poldrack-single-stim	s646	False
0.1	234.501	0.81	235.311	0	PA_without_intermediate	test	ward_and_allport	71	17.0	0.81	to_hand	poldrack-single-stim	s646	False
0.1	235.313	0.465	235.778	0	PA_without_intermediate	test	ward_and_allport	89	17.0	0.465	to_board	poldrack-single-stim	s646	False
1.0	235.784	3.088	235.783	0	PA_without_intermediate	test	ward_and_allport	-1	17.0	n/a	feedback	poldrack-single-stim	s646	False
1.679	238.879	1.679	240.558	1	PA_without_intermediate	test	ward_and_allport	71	18.0	1.679	to_hand	poldrack-single-stim	s646	False
0.1	240.559	0.678	241.237	0	PA_without_intermediate	test	ward_and_allport	82	18.0	0.678	to_board	poldrack-single-stim	s646	False
0.1	241.243	0.906	242.149	0	PA_without_intermediate	test	ward_and_allport	71	18.0	0.906	to_hand	poldrack-single-stim	s646	False
0.1	242.15	0.557	242.707	0	PA_without_intermediate	test	ward_and_allport	89	18.0	0.557	to_board	poldrack-single-stim	s646	False
0.1	242.713	1.03	243.743	0	PA_without_intermediate	test	ward_and_allport	71	18.0	1.03	to_hand	poldrack-single-stim	s646	False
0.1	243.744	0.667	244.411	0	PA_without_intermediate	test	ward_and_allport	82	18.0	0.667	to_board	poldrack-single-stim	s646	False
1.0	244.422	2.136	244.421	0	PA_without_intermediate	test	ward_and_allport	-1	18.0	n/a	feedback	poldrack-single-stim	s646	False
1.608	246.565	1.608	248.173	1	PA_without_intermediate	test	ward_and_allport	82	19.0	1.608	to_hand	poldrack-single-stim	s646	False
0.1	248.175	0.812	248.987	0	PA_without_intermediate	test	ward_and_allport	89	19.0	0.812	to_board	poldrack-single-stim	s646	False
0.1	248.994	1.098	250.092	0	PA_without_intermediate	test	ward_and_allport	82	19.0	1.098	to_hand	poldrack-single-stim	s646	False
0.1	250.094	0.925	251.019	0	PA_without_intermediate	test	ward_and_allport	89	19.0	0.925	to_board	poldrack-single-stim	s646	False
0.1	251.026	1.307	252.333	0	PA_without_intermediate	test	ward_and_allport	82	19.0	1.307	to_hand	poldrack-single-stim	s646	False
0.1	252.333	0.564	252.897	0	PA_without_intermediate	test	ward_and_allport	71	19.0	0.564	to_board	poldrack-single-stim	s646	False
1.0	252.908	7.168	252.907	0	PA_without_intermediate	test	ward_and_allport	-1	19.0	n/a	feedback	poldrack-single-stim	s646	False
1.835	260.084	1.835	261.919	1	PA_without_intermediate	test	ward_and_allport	82	20.0	1.835	to_hand	poldrack-single-stim	s646	False
0.1	261.921	0.897	262.818	0	PA_without_intermediate	test	ward_and_allport	71	20.0	0.897	to_board	poldrack-single-stim	s646	False
0.1	262.825	0.713	263.538	0	PA_without_intermediate	test	ward_and_allport	82	20.0	0.713	to_hand	poldrack-single-stim	s646	False
0.1	263.538	0.887	264.425	0	PA_without_intermediate	test	ward_and_allport	89	20.0	0.887	to_board	poldrack-single-stim	s646	False
0.1	264.432	1.305	265.737	0	PA_without_intermediate	test	ward_and_allport	82	20.0	1.305	to_hand	poldrack-single-stim	s646	False
0.1	265.738	0.542	266.28	0	PA_without_intermediate	test	ward_and_allport	71	20.0	0.542	to_board	poldrack-single-stim	s646	False
1.0	266.292	2.816	266.291	0	PA_without_intermediate	test	ward_and_allport	-1	20.0	n/a	feedback	poldrack-single-stim	s646	False
4.896	269.114	4.896	274.01	1	PA_with_intermediate	test	ward_and_allport	82	21.0	4.896	to_hand	poldrack-single-stim	s646	False
0.1	274.012	0.988	275.0	0	PA_with_intermediate	test	ward_and_allport	71	21.0	0.988	to_board	poldrack-single-stim	s646	False
0.1	275.007	0.52	275.527	0	PA_with_intermediate	test	ward_and_allport	82	21.0	0.52	to_hand	poldrack-single-stim	s646	False
0.1	275.528	0.738	276.266	0	PA_with_intermediate	test	ward_and_allport	89	21.0	0.738	to_board	poldrack-single-stim	s646	False
0.1	276.273	1.107	277.38	0	PA_with_intermediate	test	ward_and_allport	71	21.0	1.107	to_hand	poldrack-single-stim	s646	False
0.1	277.381	0.413	277.794	0	PA_with_intermediate	test	ward_and_allport	82	21.0	0.413	to_board	poldrack-single-stim	s646	False
1.0	277.802	2.952	277.801	0	PA_with_intermediate	test	ward_and_allport	-1	21.0	n/a	feedback	poldrack-single-stim	s646	False
3.298	280.762	3.298	284.06	1	PA_with_intermediate	test	ward_and_allport	89	22.0	3.298	to_hand	poldrack-single-stim	s646	False
0.1	284.061	0.41	284.471	0	PA_with_intermediate	test	ward_and_allport	71	22.0	0.41	to_board	poldrack-single-stim	s646	False
0.1	284.477	0.972	285.449	0	PA_with_intermediate	test	ward_and_allport	89	22.0	0.972	to_hand	poldrack-single-stim	s646	False
0.1	285.451	0.348	285.799	0	PA_with_intermediate	test	ward_and_allport	82	22.0	0.348	to_board	poldrack-single-stim	s646	False
0.1	285.806	0.435	286.241	0	PA_with_intermediate	test	ward_and_allport	71	22.0	0.435	to_hand	poldrack-single-stim	s646	False
0.1	286.242	0.461	286.703	0	PA_with_intermediate	test	ward_and_allport	89	22.0	0.461	to_board	poldrack-single-stim	s646	False
1.0	286.714	2.136	286.713	0	PA_with_intermediate	test	ward_and_allport	-1	22.0	n/a	feedback	poldrack-single-stim	s646	False
1.712	288.857	1.712	290.569	1	PA_without_intermediate	test	ward_and_allport	71	23.0	1.712	to_hand	poldrack-single-stim	s646	False
0.1	290.571	0.523	291.094	0	PA_without_intermediate	test	ward_and_allport	89	23.0	0.523	to_board	poldrack-single-stim	s646	False
0.1	291.1	0.572	291.672	0	PA_without_intermediate	test	ward_and_allport	71	23.0	0.572	to_hand	poldrack-single-stim	s646	False
0.1	291.674	0.468	292.142	0	PA_without_intermediate	test	ward_and_allport	89	23.0	0.468	to_board	poldrack-single-stim	s646	False
0.1	292.148	0.878	293.026	0	PA_without_intermediate	test	ward_and_allport	71	23.0	0.878	to_hand	poldrack-single-stim	s646	False
0.1	293.028	0.426	293.454	0	PA_without_intermediate	test	ward_and_allport	82	23.0	0.426	to_board	poldrack-single-stim	s646	False
1.0	293.465	2.68	293.464	0	PA_without_intermediate	test	ward_and_allport	-1	23.0	n/a	feedback	poldrack-single-stim	s646	False
1.559	296.153	1.559	297.712	1	PA_without_intermediate	test	ward_and_allport	89	24.0	1.559	to_hand	poldrack-single-stim	s646	False
0.1	297.713	0.345	298.058	0	PA_without_intermediate	test	ward_and_allport	71	24.0	0.345	to_board	poldrack-single-stim	s646	False
0.1	298.066	0.688	298.754	0	PA_without_intermediate	test	ward_and_allport	89	24.0	0.688	to_hand	poldrack-single-stim	s646	False
0.1	298.754	0.429	299.183	0	PA_without_intermediate	test	ward_and_allport	71	24.0	0.429	to_board	poldrack-single-stim	s646	False
0.1	299.191	0.553	299.744	0	PA_without_intermediate	test	ward_and_allport	89	24.0	0.553	to_hand	poldrack-single-stim	s646	False
0.1	299.746	0.387	300.133	0	PA_without_intermediate	test	ward_and_allport	82	24.0	0.387	to_board	poldrack-single-stim	s646	False
1.0	300.145	3.088	300.144	0	PA_without_intermediate	test	ward_and_allport	-1	24.0	n/a	feedback	poldrack-single-stim	s646	False
1.743	303.241	1.743	304.984	1	PA_with_intermediate	test	ward_and_allport	71	25.0	1.743	to_hand	poldrack-single-stim	s646	False
0.1	304.985	0.283	305.268	0	PA_with_intermediate	test	ward_and_allport	82	25.0	0.283	to_board	poldrack-single-stim	s646	False
0.1	305.276	2.992	308.268	0	PA_with_intermediate	test	ward_and_allport	82	25.0	2.992	to_hand	poldrack-single-stim	s646	False
0.1	308.269	0.61	308.879	0	PA_with_intermediate	test	ward_and_allport	89	25.0	0.61	to_board	poldrack-single-stim	s646	False
0.1	308.888	0.338	309.226	0	PA_with_intermediate	test	ward_and_allport	71	25.0	0.338	to_hand	poldrack-single-stim	s646	False
0.1	309.228	0.918	310.146	0	PA_with_intermediate	test	ward_and_allport	82	25.0	0.918	to_board	poldrack-single-stim	s646	False
0.1	310.153	0.955	311.108	0	PA_with_intermediate	test	ward_and_allport	89	25.0	0.955	to_hand	poldrack-single-stim	s646	False
0.1	311.11	0.822	311.932	0	PA_with_intermediate	test	ward_and_allport	82	25.0	0.822	to_board	poldrack-single-stim	s646	False
1.0	311.942	2.0	311.941	0	PA_with_intermediate	test	ward_and_allport	-1	25.0	n/a	feedback	poldrack-single-stim	s646	False
1.651	313.949	1.651	315.6	1	PA_without_intermediate	test	ward_and_allport	82	26.0	1.651	to_hand	poldrack-single-stim	s646	False
0.1	315.602	0.517	316.119	0	PA_without_intermediate	test	ward_and_allport	89	26.0	0.517	to_board	poldrack-single-stim	s646	False
0.1	316.126	1.479	317.605	0	PA_without_intermediate	test	ward_and_allport	82	26.0	1.479	to_hand	poldrack-single-stim	s646	False
0.1	317.607	0.421	318.028	0	PA_without_intermediate	test	ward_and_allport	71	26.0	0.421	to_board	poldrack-single-stim	s646	False
0.1	318.036	0.991	319.027	0	PA_without_intermediate	test	ward_and_allport	82	26.0	0.991	to_hand	poldrack-single-stim	s646	False
0.1	319.029	0.493	319.522	0	PA_without_intermediate	test	ward_and_allport	89	26.0	0.493	to_board	poldrack-single-stim	s646	False
1.0	319.531	2.0	319.53	0	PA_without_intermediate	test	ward_and_allport	-1	26.0	n/a	feedback	poldrack-single-stim	s646	False
2.061	321.54	2.061	323.601	1	PA_without_intermediate	test	ward_and_allport	82	27.0	2.061	to_hand	poldrack-single-stim	s646	False
0.1	323.603	0.673	324.276	0	PA_without_intermediate	test	ward_and_allport	89	27.0	0.673	to_board	poldrack-single-stim	s646	False
0.1	324.284	1.387	325.671	0	PA_without_intermediate	test	ward_and_allport	82	27.0	1.387	to_hand	poldrack-single-stim	s646	False
0.1	325.673	0.599	326.272	0	PA_without_intermediate	test	ward_and_allport	71	27.0	0.599	to_board	poldrack-single-stim	s646	False
0.1	326.279	1.364	327.643	0	PA_without_intermediate	test	ward_and_allport	82	27.0	1.364	to_hand	poldrack-single-stim	s646	False
0.1	327.645	0.706	328.351	0	PA_without_intermediate	test	ward_and_allport	89	27.0	0.706	to_board	poldrack-single-stim	s646	False
1.0	328.363	2.0	328.362	0	PA_without_intermediate	test	ward_and_allport	-1	27.0	n/a	feedback	poldrack-single-stim	s646	False
4.186	330.37	4.186	334.556	1	PA_with_intermediate	test	ward_and_allport	89	28.0	4.186	to_hand	poldrack-single-stim	s646	False
0.1	334.558	0.529	335.087	0	PA_with_intermediate	test	ward_and_allport	82	28.0	0.529	to_board	poldrack-single-stim	s646	False
0.1	335.095	0.866	335.961	0	PA_with_intermediate	test	ward_and_allport	89	28.0	0.866	to_hand	poldrack-single-stim	s646	False
0.1	335.963	0.486	336.449	0	PA_with_intermediate	test	ward_and_allport	71	28.0	0.486	to_board	poldrack-single-stim	s646	False
0.1	336.457	0.812	337.269	0	PA_with_intermediate	test	ward_and_allport	82	28.0	0.812	to_hand	poldrack-single-stim	s646	False
0.1	337.271	0.546	337.817	0	PA_with_intermediate	test	ward_and_allport	71	28.0	0.546	to_board	poldrack-single-stim	s646	False
1.0	337.83	2.544	337.829	0	PA_with_intermediate	test	ward_and_allport	-1	28.0	n/a	feedback	poldrack-single-stim	s646	False
1.565	340.383	1.565	341.948	1	PA_without_intermediate	test	ward_and_allport	89	29.0	1.565	to_hand	poldrack-single-stim	s646	False
0.1	341.949	0.552	342.501	0	PA_without_intermediate	test	ward_and_allport	71	29.0	0.552	to_board	poldrack-single-stim	s646	False
0.1	342.51	1.561	344.071	0	PA_without_intermediate	test	ward_and_allport	89	29.0	1.561	to_hand	poldrack-single-stim	s646	False
0.1	344.073	0.439	344.512	0	PA_without_intermediate	test	ward_and_allport	82	29.0	0.439	to_board	poldrack-single-stim	s646	False
0.1	344.52	0.708	345.228	0	PA_without_intermediate	test	ward_and_allport	89	29.0	0.708	to_hand	poldrack-single-stim	s646	False
0.1	345.229	0.776	346.005	0	PA_without_intermediate	test	ward_and_allport	71	29.0	0.776	to_board	poldrack-single-stim	s646	False
1.0	346.019	2.272	346.018	0	PA_without_intermediate	test	ward_and_allport	-1	29.0	n/a	feedback	poldrack-single-stim	s646	False
3.083	353.303	3.083	356.386	1	PA_with_intermediate	test	ward_and_allport	82	30.0	3.083	to_hand	poldrack-single-stim	s646	False
0.1	356.387	0.366	356.753	0	PA_with_intermediate	test	ward_and_allport	71	30.0	0.366	to_board	poldrack-single-stim	s646	False
0.1	356.762	0.324	357.086	0	PA_with_intermediate	test	ward_and_allport	82	30.0	0.324	to_hand	poldrack-single-stim	s646	False
0.1	357.088	0.681	357.769	0	PA_with_intermediate	test	ward_and_allport	89	30.0	0.681	to_board	poldrack-single-stim	s646	False
0.1	357.777	0.81	358.587	0	PA_with_intermediate	test	ward_and_allport	71	30.0	0.81	to_hand	poldrack-single-stim	s646	False
0.1	358.587	0.319	358.906	0	PA_with_intermediate	test	ward_and_allport	82	30.0	0.319	to_board	poldrack-single-stim	s646	False
1.0	358.919	4.04	358.918	0	PA_with_intermediate	test	ward_and_allport	-1	30.0	n/a	feedback	poldrack-single-stim	s646	False
2.527	362.968	2.527	365.495	1	PA_with_intermediate	test	ward_and_allport	71	31.0	2.527	to_hand	poldrack-single-stim	s646	False
0.1	365.496	0.331	365.827	0	PA_with_intermediate	test	ward_and_allport	82	31.0	0.331	to_board	poldrack-single-stim	s646	False
0.1	365.837	0.468	366.305	0	PA_with_intermediate	test	ward_and_allport	71	31.0	0.468	to_hand	poldrack-single-stim	s646	False
0.1	366.306	0.585	366.891	0	PA_with_intermediate	test	ward_and_allport	89	31.0	0.585	to_board	poldrack-single-stim	s646	False
0.1	366.9	1.014	367.914	0	PA_with_intermediate	test	ward_and_allport	82	31.0	1.014	to_hand	poldrack-single-stim	s646	False
0.1	367.915	0.381	368.296	0	PA_with_intermediate	test	ward_and_allport	71	31.0	0.381	to_board	poldrack-single-stim	s646	False
1.0	368.308	2.272	368.307	0	PA_with_intermediate	test	ward_and_allport	-1	31.0	n/a	feedback	poldrack-single-stim	s646	False
2.183	370.589	2.183	372.772	1	PA_with_intermediate	test	ward_and_allport	89	32.0	2.183	to_hand	poldrack-single-stim	s646	False
0.1	372.774	0.431	373.205	0	PA_with_intermediate	test	ward_and_allport	71	32.0	0.431	to_board	poldrack-single-stim	s646	False
0.1	373.212	0.481	373.693	0	PA_with_intermediate	test	ward_and_allport	89	32.0	0.481	to_hand	poldrack-single-stim	s646	False
0.1	373.695	0.388	374.083	0	PA_with_intermediate	test	ward_and_allport	82	32.0	0.388	to_board	poldrack-single-stim	s646	False
0.1	374.09	0.811	374.901	0	PA_with_intermediate	test	ward_and_allport	71	32.0	0.811	to_hand	poldrack-single-stim	s646	False
0.1	374.901	0.34	375.241	0	PA_with_intermediate	test	ward_and_allport	82	32.0	0.34	to_board	poldrack-single-stim	s646	False
1.0	375.254	2.136	375.253	0	PA_with_intermediate	test	ward_and_allport	-1	32.0	n/a	feedback	poldrack-single-stim	s646	False
2.504	377.4	2.504	379.904	1	PA_with_intermediate	test	ward_and_allport	82	33.0	2.504	to_hand	poldrack-single-stim	s646	False
0.1	379.906	0.514	380.42	0	PA_with_intermediate	test	ward_and_allport	89	33.0	0.514	to_board	poldrack-single-stim	s646	False
0.1	380.429	0.635	381.064	0	PA_with_intermediate	test	ward_and_allport	82	33.0	0.635	to_hand	poldrack-single-stim	s646	False
0.1	381.066	0.395	381.461	0	PA_with_intermediate	test	ward_and_allport	71	33.0	0.395	to_board	poldrack-single-stim	s646	False
0.1	381.47	0.561	382.031	0	PA_with_intermediate	test	ward_and_allport	89	33.0	0.561	to_hand	poldrack-single-stim	s646	False
0.1	382.033	0.519	382.552	0	PA_with_intermediate	test	ward_and_allport	71	33.0	0.519	to_board	poldrack-single-stim	s646	False
1.0	382.564	2.0	382.563	0	PA_with_intermediate	test	ward_and_allport	-1	33.0	n/a	feedback	poldrack-single-stim	s646	False
2.183	384.574	2.183	386.757	1	PA_with_intermediate	test	ward_and_allport	89	34.0	2.183	to_hand	poldrack-single-stim	s646	False
0.1	386.759	0.566	387.325	0	PA_with_intermediate	test	ward_and_allport	82	34.0	0.566	to_board	poldrack-single-stim	s646	False
0.1	387.333	1.479	388.812	0	PA_with_intermediate	test	ward_and_allport	89	34.0	1.479	to_hand	poldrack-single-stim	s646	False
0.1	388.813	0.527	389.34	0	PA_with_intermediate	test	ward_and_allport	71	34.0	0.527	to_board	poldrack-single-stim	s646	False
0.1	389.349	0.87	390.219	0	PA_with_intermediate	test	ward_and_allport	82	34.0	0.87	to_hand	poldrack-single-stim	s646	False
0.1	390.221	0.468	390.689	0	PA_with_intermediate	test	ward_and_allport	89	34.0	0.468	to_board	poldrack-single-stim	s646	False
1.0	390.704	2.0	390.703	0	PA_with_intermediate	test	ward_and_allport	-1	34.0	n/a	feedback	poldrack-single-stim	s646	False
1.561	392.714	1.561	394.275	1	PA_without_intermediate	test	ward_and_allport	89	35.0	1.561	to_hand	poldrack-single-stim	s646	False
0.1	394.277	0.994	395.271	0	PA_without_intermediate	test	ward_and_allport	82	35.0	0.994	to_board	poldrack-single-stim	s646	False
0.1	395.278	0.476	395.754	0	PA_without_intermediate	test	ward_and_allport	89	35.0	0.476	to_hand	poldrack-single-stim	s646	False
0.1	395.755	0.938	396.693	0	PA_without_intermediate	test	ward_and_allport	82	35.0	0.938	to_board	poldrack-single-stim	s646	False
0.1	396.7	0.412	397.112	0	PA_without_intermediate	test	ward_and_allport	89	35.0	0.412	to_hand	poldrack-single-stim	s646	False
0.1	397.114	0.364	397.478	0	PA_without_intermediate	test	ward_and_allport	71	35.0	0.364	to_board	poldrack-single-stim	s646	False
1.0	397.488	2.408	397.487	0	PA_without_intermediate	test	ward_and_allport	-1	35.0	n/a	feedback	poldrack-single-stim	s646	False
2.226	399.906	2.226	402.132	1	PA_with_intermediate	test	ward_and_allport	71	36.0	2.226	to_hand	poldrack-single-stim	s646	False
0.1	402.133	0.544	402.677	0	PA_with_intermediate	test	ward_and_allport	89	36.0	0.544	to_board	poldrack-single-stim	s646	False
0.1	402.686	0.348	403.034	0	PA_with_intermediate	test	ward_and_allport	71	36.0	0.348	to_hand	poldrack-single-stim	s646	False
0.1	403.036	0.44	403.476	0	PA_with_intermediate	test	ward_and_allport	82	36.0	0.44	to_board	poldrack-single-stim	s646	False
0.1	403.487	0.685	404.172	0	PA_with_intermediate	test	ward_and_allport	89	36.0	0.685	to_hand	poldrack-single-stim	s646	False
0.1	404.174	0.33	404.504	0	PA_with_intermediate	test	ward_and_allport	71	36.0	0.33	to_board	poldrack-single-stim	s646	False
1.0	404.518	3.768	404.517	0	PA_with_intermediate	test	ward_and_allport	-1	36.0	n/a	feedback	poldrack-single-stim	s646	False
1.84	408.294	1.84	410.134	1	PA_with_intermediate	test	ward_and_allport	82	37.0	1.84	to_hand	poldrack-single-stim	s646	False
0.1	410.136	0.377	410.513	0	PA_with_intermediate	test	ward_and_allport	89	37.0	0.377	to_board	poldrack-single-stim	s646	False
0.1	410.521	0.469	410.99	0	PA_with_intermediate	test	ward_and_allport	82	37.0	0.469	to_hand	poldrack-single-stim	s646	False
0.1	410.992	0.54	411.532	0	PA_with_intermediate	test	ward_and_allport	71	37.0	0.54	to_board	poldrack-single-stim	s646	False
0.1	411.542	0.539	412.081	0	PA_with_intermediate	test	ward_and_allport	89	37.0	0.539	to_hand	poldrack-single-stim	s646	False
0.1	412.082	0.491	412.573	0	PA_with_intermediate	test	ward_and_allport	82	37.0	0.491	to_board	poldrack-single-stim	s646	False
1.0	412.586	2.68	412.585	0	PA_with_intermediate	test	ward_and_allport	-1	37.0	n/a	feedback	poldrack-single-stim	s646	False
2.062	415.274	2.062	417.336	1	PA_without_intermediate	test	ward_and_allport	82	38.0	2.062	to_hand	poldrack-single-stim	s646	False
0.1	417.336	0.418	417.754	0	PA_without_intermediate	test	ward_and_allport	71	38.0	0.418	to_board	poldrack-single-stim	s646	False
0.1	417.762	0.92	418.682	0	PA_without_intermediate	test	ward_and_allport	82	38.0	0.92	to_hand	poldrack-single-stim	s646	False
0.1	418.684	0.385	419.069	0	PA_without_intermediate	test	ward_and_allport	89	38.0	0.385	to_board	poldrack-single-stim	s646	False
0.1	419.079	0.904	419.983	0	PA_without_intermediate	test	ward_and_allport	82	38.0	0.904	to_hand	poldrack-single-stim	s646	False
0.1	419.985	0.211	420.196	0	PA_without_intermediate	test	ward_and_allport	71	38.0	0.211	to_board	poldrack-single-stim	s646	False
1.0	420.208	3.224	420.207	0	PA_without_intermediate	test	ward_and_allport	-1	38.0	n/a	feedback	poldrack-single-stim	s646	False
2.635	423.441	2.635	426.076	1	PA_without_intermediate	test	ward_and_allport	71	39.0	2.635	to_hand	poldrack-single-stim	s646	False
0.1	426.077	0.361	426.438	0	PA_without_intermediate	test	ward_and_allport	82	39.0	0.361	to_board	poldrack-single-stim	s646	False
0.1	426.446	1.236	427.682	0	PA_without_intermediate	test	ward_and_allport	71	39.0	1.236	to_hand	poldrack-single-stim	s646	False
0.1	427.684	0.346	428.03	0	PA_without_intermediate	test	ward_and_allport	89	39.0	0.346	to_board	poldrack-single-stim	s646	False
0.1	428.04	0.389	428.429	0	PA_without_intermediate	test	ward_and_allport	71	39.0	0.389	to_hand	poldrack-single-stim	s646	False
0.1	428.43	0.397	428.827	0	PA_without_intermediate	test	ward_and_allport	82	39.0	0.397	to_board	poldrack-single-stim	s646	False
1.0	428.84	3.36	428.839	0	PA_without_intermediate	test	ward_and_allport	-1	39.0	n/a	feedback	poldrack-single-stim	s646	False
2.081	432.209	2.081	434.29	1	PA_without_intermediate	test	ward_and_allport	71	40.0	2.081	to_hand	poldrack-single-stim	s646	False
0.1	434.292	0.307	434.599	0	PA_without_intermediate	test	ward_and_allport	82	40.0	0.307	to_board	poldrack-single-stim	s646	False
0.1	434.608	0.743	435.351	0	PA_without_intermediate	test	ward_and_allport	71	40.0	0.743	to_hand	poldrack-single-stim	s646	False
0.1	435.353	0.268	435.621	0	PA_without_intermediate	test	ward_and_allport	82	40.0	0.268	to_board	poldrack-single-stim	s646	False
0.1	435.631	0.492	436.123	0	PA_without_intermediate	test	ward_and_allport	71	40.0	0.492	to_hand	poldrack-single-stim	s646	False
0.1	436.125	0.239	436.364	0	PA_without_intermediate	test	ward_and_allport	89	40.0	0.239	to_board	poldrack-single-stim	s646	False
1.0	436.376	2.0	436.375	0	PA_without_intermediate	test	ward_and_allport	-1	40.0	n/a	feedback	poldrack-single-stim	s646	False
1.477	438.386	1.477	439.863	1	PA_without_intermediate	test	ward_and_allport	89	41.0	1.477	to_hand	poldrack-single-stim	s646	False
0.1	439.865	0.342	440.207	0	PA_without_intermediate	test	ward_and_allport	82	41.0	0.342	to_board	poldrack-single-stim	s646	False
0.1	440.215	0.739	440.954	0	PA_without_intermediate	test	ward_and_allport	89	41.0	0.739	to_hand	poldrack-single-stim	s646	False
0.1	440.956	0.529	441.485	0	PA_without_intermediate	test	ward_and_allport	82	41.0	0.529	to_board	poldrack-single-stim	s646	False
0.1	441.493	0.355	441.848	0	PA_without_intermediate	test	ward_and_allport	89	41.0	0.355	to_hand	poldrack-single-stim	s646	False
0.1	441.85	0.234	442.084	0	PA_without_intermediate	test	ward_and_allport	71	41.0	0.234	to_board	poldrack-single-stim	s646	False
1.0	442.096	2.408	442.095	0	PA_without_intermediate	test	ward_and_allport	-1	41.0	n/a	feedback	poldrack-single-stim	s646	False
2.573	444.511	2.573	447.084	1	PA_with_intermediate	test	ward_and_allport	71	42.0	2.573	to_hand	poldrack-single-stim	s646	False
0.1	447.086	0.241	447.327	0	PA_with_intermediate	test	ward_and_allport	82	42.0	0.241	to_board	poldrack-single-stim	s646	False
0.1	447.334	0.457	447.791	0	PA_with_intermediate	test	ward_and_allport	71	42.0	0.457	to_hand	poldrack-single-stim	s646	False
0.1	447.793	0.312	448.105	0	PA_with_intermediate	test	ward_and_allport	89	42.0	0.312	to_board	poldrack-single-stim	s646	False
0.1	448.116	0.505	448.621	0	PA_with_intermediate	test	ward_and_allport	82	42.0	0.505	to_hand	poldrack-single-stim	s646	False
0.1	448.622	0.49	449.112	0	PA_with_intermediate	test	ward_and_allport	71	42.0	0.49	to_board	poldrack-single-stim	s646	False
1.0	449.125	2.136	449.124	0	PA_with_intermediate	test	ward_and_allport	-1	42.0	n/a	feedback	poldrack-single-stim	s646	False
1.371	451.27	1.371	452.641	1	PA_without_intermediate	test	ward_and_allport	71	43.0	1.371	to_hand	poldrack-single-stim	s646	False
0.1	452.642	0.246	452.888	0	PA_without_intermediate	test	ward_and_allport	89	43.0	0.246	to_board	poldrack-single-stim	s646	False
0.1	452.896	1.052	453.948	0	PA_without_intermediate	test	ward_and_allport	71	43.0	1.052	to_hand	poldrack-single-stim	s646	False
0.1	453.949	0.184	454.133	0	PA_without_intermediate	test	ward_and_allport	89	43.0	0.184	to_board	poldrack-single-stim	s646	False
0.1	454.141	0.375	454.516	0	PA_without_intermediate	test	ward_and_allport	71	43.0	0.375	to_hand	poldrack-single-stim	s646	False
0.1	454.518	0.354	454.872	0	PA_without_intermediate	test	ward_and_allport	82	43.0	0.354	to_board	poldrack-single-stim	s646	False
1.0	454.884	5.128	454.883	0	PA_without_intermediate	test	ward_and_allport	-1	43.0	n/a	feedback	poldrack-single-stim	s646	False
1.282	460.021	1.282	461.303	1	PA_without_intermediate	test	ward_and_allport	89	44.0	1.282	to_hand	poldrack-single-stim	s646	False
0.1	461.304	0.295	461.599	0	PA_without_intermediate	test	ward_and_allport	82	44.0	0.295	to_board	poldrack-single-stim	s646	False
0.1	461.61	1.632	463.242	0	PA_without_intermediate	test	ward_and_allport	89	44.0	1.632	to_hand	poldrack-single-stim	s646	False
0.1	463.244	0.192	463.436	0	PA_without_intermediate	test	ward_and_allport	71	44.0	0.192	to_board	poldrack-single-stim	s646	False
0.1	463.447	0.461	463.908	0	PA_without_intermediate	test	ward_and_allport	89	44.0	0.461	to_hand	poldrack-single-stim	s646	False
0.1	463.909	0.375	464.284	0	PA_without_intermediate	test	ward_and_allport	82	44.0	0.375	to_board	poldrack-single-stim	s646	False
1.0	464.297	2.136	464.296	0	PA_without_intermediate	test	ward_and_allport	-1	44.0	n/a	feedback	poldrack-single-stim	s646	False
2.074	471.449	2.074	473.523	1	PA_without_intermediate	test	ward_and_allport	89	45.0	2.074	to_hand	poldrack-single-stim	s646	False
0.1	473.524	0.279	473.803	0	PA_without_intermediate	test	ward_and_allport	71	45.0	0.279	to_board	poldrack-single-stim	s646	False
0.1	473.816	1.28	475.096	0	PA_without_intermediate	test	ward_and_allport	89	45.0	1.28	to_hand	poldrack-single-stim	s646	False
0.1	475.098	0.299	475.397	0	PA_without_intermediate	test	ward_and_allport	82	45.0	0.299	to_board	poldrack-single-stim	s646	False
0.1	475.409	0.919	476.328	0	PA_without_intermediate	test	ward_and_allport	89	45.0	0.919	to_hand	poldrack-single-stim	s646	False
0.1	476.33	0.317	476.647	0	PA_without_intermediate	test	ward_and_allport	71	45.0	0.317	to_board	poldrack-single-stim	s646	False
1.0	476.663	5.264	476.662	0	PA_without_intermediate	test	ward_and_allport	-1	45.0	n/a	feedback	poldrack-single-stim	s646	False
2.156	481.938	2.156	484.094	1	PA_with_intermediate	test	ward_and_allport	89	46.0	2.156	to_hand	poldrack-single-stim	s646	False
0.1	484.096	0.373	484.469	0	PA_with_intermediate	test	ward_and_allport	82	46.0	0.373	to_board	poldrack-single-stim	s646	False
0.1	484.481	0.501	484.982	0	PA_with_intermediate	test	ward_and_allport	89	46.0	0.501	to_hand	poldrack-single-stim	s646	False
0.1	484.984	0.28	485.264	0	PA_with_intermediate	test	ward_and_allport	71	46.0	0.28	to_board	poldrack-single-stim	s646	False
0.1	485.276	0.551	485.827	0	PA_with_intermediate	test	ward_and_allport	82	46.0	0.551	to_hand	poldrack-single-stim	s646	False
0.1	485.829	0.664	486.493	0	PA_with_intermediate	test	ward_and_allport	89	46.0	0.664	to_board	poldrack-single-stim	s646	False
1.0	486.51	4.04	486.509	0	PA_with_intermediate	test	ward_and_allport	-1	46.0	n/a	feedback	poldrack-single-stim	s646	False
3.753	490.561	3.753	494.314	1	PA_with_intermediate	test	ward_and_allport	71	47.0	3.753	to_hand	poldrack-single-stim	s646	False
0.1	494.316	0.284	494.6	0	PA_with_intermediate	test	ward_and_allport	82	47.0	0.284	to_board	poldrack-single-stim	s646	False
0.1	494.611	0.302	494.913	0	PA_with_intermediate	test	ward_and_allport	71	47.0	0.302	to_hand	poldrack-single-stim	s646	False
0.1	494.914	0.416	495.33	0	PA_with_intermediate	test	ward_and_allport	89	47.0	0.416	to_board	poldrack-single-stim	s646	False
0.1	495.343	0.502	495.845	0	PA_with_intermediate	test	ward_and_allport	82	47.0	0.502	to_hand	poldrack-single-stim	s646	False
0.1	495.847	0.351	496.198	0	PA_with_intermediate	test	ward_and_allport	89	47.0	0.351	to_board	poldrack-single-stim	s646	False
1.0	496.211	2.136	496.21	0	PA_with_intermediate	test	ward_and_allport	-1	47.0	n/a	feedback	poldrack-single-stim	s646	False
