duration	onset	block_duration	movement_onset	planning	condition	exp_stage	experiment_exp_id	key_press	problem_id	response_time	trial_id	trial_type	worker_id	junk
3.4	3.009	3.4	6.409	1	UA_with_intermediate	practice	ward_and_allport	71	0.0	3.4	to_hand	poldrack-single-stim	s647	False
0.1	6.412	5.751	12.163	0	UA_with_intermediate	practice	ward_and_allport	82	0.0	5.751	to_board	poldrack-single-stim	s647	False
0.1	12.165	0.43	12.595	0	UA_with_intermediate	practice	ward_and_allport	71	0.0	0.43	to_hand	poldrack-single-stim	s647	False
0.1	12.596	0.949	13.545	0	UA_with_intermediate	practice	ward_and_allport	89	0.0	0.949	to_board	poldrack-single-stim	s647	False
0.1	13.547	1.367	14.914	0	UA_with_intermediate	practice	ward_and_allport	82	0.0	1.367	to_hand	poldrack-single-stim	s647	False
0.1	14.915	0.417	15.332	0	UA_with_intermediate	practice	ward_and_allport	89	0.0	0.417	to_board	poldrack-single-stim	s647	False
1.0	15.339	2.5	15.338	0	UA_with_intermediate	practice	ward_and_allport	-1	0.0	n/a	feedback	poldrack-single-stim	s647	False
2.921	17.842	2.921	20.763	1	UA_with_intermediate	practice	ward_and_allport	71	1.0	2.921	to_hand	poldrack-single-stim	s647	False
0.1	20.763	1.046	21.809	0	UA_with_intermediate	practice	ward_and_allport	71	1.0	1.046	to_board	poldrack-single-stim	s647	False
0.1	21.811	0.442	22.253	0	UA_with_intermediate	practice	ward_and_allport	89	1.0	0.442	to_hand	poldrack-single-stim	s647	False
0.1	22.255	1.803	24.058	0	UA_with_intermediate	practice	ward_and_allport	82	1.0	1.803	to_board	poldrack-single-stim	s647	False
0.1	24.061	0.407	24.468	0	UA_with_intermediate	practice	ward_and_allport	71	1.0	0.407	to_hand	poldrack-single-stim	s647	False
0.1	24.469	0.599	25.068	0	UA_with_intermediate	practice	ward_and_allport	89	1.0	0.599	to_board	poldrack-single-stim	s647	False
0.1	25.07	0.872	25.942	0	UA_with_intermediate	practice	ward_and_allport	82	1.0	0.872	to_hand	poldrack-single-stim	s647	False
0.1	25.942	0.489	26.431	0	UA_with_intermediate	practice	ward_and_allport	89	1.0	0.489	to_board	poldrack-single-stim	s647	False
1.0	26.434	2.1	26.433	0	UA_with_intermediate	practice	ward_and_allport	-1	1.0	n/a	feedback	poldrack-single-stim	s647	False
3.26	28.537	3.26	31.797	1	UA_without_intermediate	practice	ward_and_allport	71	2.0	3.26	to_hand	poldrack-single-stim	s647	False
0.1	31.798	1.027	32.825	0	UA_without_intermediate	practice	ward_and_allport	89	2.0	1.027	to_board	poldrack-single-stim	s647	False
0.1	32.826	0.996	33.822	0	UA_without_intermediate	practice	ward_and_allport	71	2.0	0.996	to_hand	poldrack-single-stim	s647	False
0.1	33.823	0.876	34.699	0	UA_without_intermediate	practice	ward_and_allport	82	2.0	0.876	to_board	poldrack-single-stim	s647	False
0.1	34.702	0.546	35.248	0	UA_without_intermediate	practice	ward_and_allport	89	2.0	0.546	to_hand	poldrack-single-stim	s647	False
0.1	35.249	0.575	35.824	0	UA_without_intermediate	practice	ward_and_allport	82	2.0	0.575	to_board	poldrack-single-stim	s647	False
0.1	35.826	4.028	39.854	0	UA_without_intermediate	practice	ward_and_allport	82	2.0	4.028	to_hand	poldrack-single-stim	s647	False
0.1	39.855	1.638	41.493	0	UA_without_intermediate	practice	ward_and_allport	71	2.0	1.638	to_board	poldrack-single-stim	s647	False
0.1	41.496	2.385	43.881	0	UA_without_intermediate	practice	ward_and_allport	82	2.0	2.385	to_hand	poldrack-single-stim	s647	False
0.1	43.882	1.93	45.812	0	UA_without_intermediate	practice	ward_and_allport	71	2.0	1.93	to_board	poldrack-single-stim	s647	False
0.1	45.814	0.657	46.471	0	UA_without_intermediate	practice	ward_and_allport	82	2.0	0.657	to_hand	poldrack-single-stim	s647	False
0.1	46.472	0.715	47.187	0	UA_without_intermediate	practice	ward_and_allport	71	2.0	0.715	to_board	poldrack-single-stim	s647	False
0.1	47.189	1.147	48.336	0	UA_without_intermediate	practice	ward_and_allport	71	2.0	1.147	to_hand	poldrack-single-stim	s647	False
0.1	48.337	0.371	48.708	0	UA_without_intermediate	practice	ward_and_allport	89	2.0	0.371	to_board	poldrack-single-stim	s647	False
0.1	48.711	1.019	49.73	0	UA_without_intermediate	practice	ward_and_allport	71	2.0	1.019	to_hand	poldrack-single-stim	s647	False
0.1	49.732	1.746	51.478	0	UA_without_intermediate	practice	ward_and_allport	82	2.0	1.746	to_board	poldrack-single-stim	s647	False
0.1	51.48	0.786	52.266	0	UA_without_intermediate	practice	ward_and_allport	71	2.0	0.786	to_hand	poldrack-single-stim	s647	False
0.1	52.268	1.032	53.3	0	UA_without_intermediate	practice	ward_and_allport	89	2.0	1.032	to_board	poldrack-single-stim	s647	False
0.1	53.301	0.545	53.846	0	UA_without_intermediate	practice	ward_and_allport	82	2.0	0.545	to_hand	poldrack-single-stim	s647	False
0.1	53.848	0.809	54.657	0	UA_without_intermediate	practice	ward_and_allport	89	2.0	0.809	to_board	poldrack-single-stim	s647	False
1.0	54.661	2.2	54.66	0	UA_without_intermediate	practice	ward_and_allport	-1	2.0	n/a	feedback	poldrack-single-stim	s647	False
2.52	56.864	2.52	59.384	1	UA_without_intermediate	practice	ward_and_allport	71	3.0	2.52	to_hand	poldrack-single-stim	s647	False
0.1	59.386	0.801	60.187	0	UA_without_intermediate	practice	ward_and_allport	89	3.0	0.801	to_board	poldrack-single-stim	s647	False
0.1	60.189	1.78	61.969	0	UA_without_intermediate	practice	ward_and_allport	82	3.0	1.78	to_hand	poldrack-single-stim	s647	False
0.1	61.971	0.623	62.594	0	UA_without_intermediate	practice	ward_and_allport	89	3.0	0.623	to_board	poldrack-single-stim	s647	False
0.1	62.596	1.216	63.812	0	UA_without_intermediate	practice	ward_and_allport	71	3.0	1.216	to_hand	poldrack-single-stim	s647	False
0.1	63.813	0.529	64.342	0	UA_without_intermediate	practice	ward_and_allport	89	3.0	0.529	to_board	poldrack-single-stim	s647	False
1.0	64.346	2.0	64.345	0	UA_without_intermediate	practice	ward_and_allport	-1	3.0	n/a	feedback	poldrack-single-stim	s647	False
2.593	68.354	2.593	70.947	1	PA_with_intermediate	test	ward_and_allport	71	0.0	2.593	to_hand	poldrack-single-stim	s647	False
0.1	70.948	2.02	72.968	0	PA_with_intermediate	test	ward_and_allport	89	0.0	2.02	to_board	poldrack-single-stim	s647	False
0.1	72.97	0.892	73.862	0	PA_with_intermediate	test	ward_and_allport	71	0.0	0.892	to_hand	poldrack-single-stim	s647	False
0.1	73.864	0.665	74.529	0	PA_with_intermediate	test	ward_and_allport	82	0.0	0.665	to_board	poldrack-single-stim	s647	False
0.1	74.531	0.986	75.517	0	PA_with_intermediate	test	ward_and_allport	89	0.0	0.986	to_hand	poldrack-single-stim	s647	False
0.1	75.519	0.536	76.055	0	PA_with_intermediate	test	ward_and_allport	71	0.0	0.536	to_board	poldrack-single-stim	s647	False
1.0	76.059	3.768	76.058	0	PA_with_intermediate	test	ward_and_allport	-1	0.0	n/a	feedback	poldrack-single-stim	s647	False
2.313	79.831	2.313	82.144	1	PA_with_intermediate	test	ward_and_allport	89	1.0	2.313	to_hand	poldrack-single-stim	s647	False
0.1	82.145	1.751	83.896	0	PA_with_intermediate	test	ward_and_allport	71	1.0	1.751	to_board	poldrack-single-stim	s647	False
0.1	83.899	1.71	85.609	0	PA_with_intermediate	test	ward_and_allport	89	1.0	1.71	to_hand	poldrack-single-stim	s647	False
0.1	85.61	0.402	86.012	0	PA_with_intermediate	test	ward_and_allport	82	1.0	0.402	to_board	poldrack-single-stim	s647	False
0.1	86.016	1.412	87.428	0	PA_with_intermediate	test	ward_and_allport	71	1.0	1.412	to_hand	poldrack-single-stim	s647	False
0.1	87.429	0.375	87.804	0	PA_with_intermediate	test	ward_and_allport	89	1.0	0.375	to_board	poldrack-single-stim	s647	False
1.0	87.808	2.68	87.807	0	PA_with_intermediate	test	ward_and_allport	-1	1.0	n/a	feedback	poldrack-single-stim	s647	False
3.819	90.491	3.819	94.31	1	PA_without_intermediate	test	ward_and_allport	71	2.0	3.819	to_hand	poldrack-single-stim	s647	False
0.1	94.312	0.365	94.677	0	PA_without_intermediate	test	ward_and_allport	89	2.0	0.365	to_board	poldrack-single-stim	s647	False
0.1	94.68	1.17	95.85	0	PA_without_intermediate	test	ward_and_allport	71	2.0	1.17	to_hand	poldrack-single-stim	s647	False
0.1	95.852	0.41	96.262	0	PA_without_intermediate	test	ward_and_allport	82	2.0	0.41	to_board	poldrack-single-stim	s647	False
0.1	96.266	0.827	97.093	0	PA_without_intermediate	test	ward_and_allport	71	2.0	0.827	to_hand	poldrack-single-stim	s647	False
0.1	97.095	0.475	97.57	0	PA_without_intermediate	test	ward_and_allport	89	2.0	0.475	to_board	poldrack-single-stim	s647	False
1.0	97.575	3.224	97.574	0	PA_without_intermediate	test	ward_and_allport	-1	2.0	n/a	feedback	poldrack-single-stim	s647	False
1.996	100.804	1.996	102.8	1	PA_without_intermediate	test	ward_and_allport	71	3.0	1.996	to_hand	poldrack-single-stim	s647	False
0.1	102.801	2.123	104.924	0	PA_without_intermediate	test	ward_and_allport	82	3.0	2.123	to_board	poldrack-single-stim	s647	False
0.1	104.928	0.627	105.555	0	PA_without_intermediate	test	ward_and_allport	71	3.0	0.627	to_hand	poldrack-single-stim	s647	False
0.1	105.557	0.476	106.033	0	PA_without_intermediate	test	ward_and_allport	89	3.0	0.476	to_board	poldrack-single-stim	s647	False
0.1	106.037	0.597	106.634	0	PA_without_intermediate	test	ward_and_allport	71	3.0	0.597	to_hand	poldrack-single-stim	s647	False
0.1	106.636	0.542	107.178	0	PA_without_intermediate	test	ward_and_allport	82	3.0	0.542	to_board	poldrack-single-stim	s647	False
1.0	107.183	3.36	107.182	0	PA_without_intermediate	test	ward_and_allport	-1	3.0	n/a	feedback	poldrack-single-stim	s647	False
1.067	110.546	1.067	111.613	1	PA_without_intermediate	test	ward_and_allport	89	4.0	1.067	to_hand	poldrack-single-stim	s647	False
0.1	111.614	0.965	112.579	0	PA_without_intermediate	test	ward_and_allport	71	4.0	0.965	to_board	poldrack-single-stim	s647	False
0.1	112.583	0.746	113.329	0	PA_without_intermediate	test	ward_and_allport	89	4.0	0.746	to_hand	poldrack-single-stim	s647	False
0.1	113.33	0.65	113.98	0	PA_without_intermediate	test	ward_and_allport	82	4.0	0.65	to_board	poldrack-single-stim	s647	False
0.1	113.982	0.522	114.504	0	PA_without_intermediate	test	ward_and_allport	89	4.0	0.522	to_hand	poldrack-single-stim	s647	False
0.1	114.505	0.455	114.96	0	PA_without_intermediate	test	ward_and_allport	71	4.0	0.455	to_board	poldrack-single-stim	s647	False
1.0	114.966	2.0	114.965	0	PA_without_intermediate	test	ward_and_allport	-1	4.0	n/a	feedback	poldrack-single-stim	s647	False
1.248	116.969	1.248	118.217	1	PA_without_intermediate	test	ward_and_allport	89	5.0	1.248	to_hand	poldrack-single-stim	s647	False
0.1	118.218	0.938	119.156	0	PA_without_intermediate	test	ward_and_allport	82	5.0	0.938	to_board	poldrack-single-stim	s647	False
0.1	119.16	1.197	120.357	0	PA_without_intermediate	test	ward_and_allport	89	5.0	1.197	to_hand	poldrack-single-stim	s647	False
0.1	120.357	0.72	121.077	0	PA_without_intermediate	test	ward_and_allport	71	5.0	0.72	to_board	poldrack-single-stim	s647	False
0.1	121.081	0.621	121.702	0	PA_without_intermediate	test	ward_and_allport	89	5.0	0.621	to_hand	poldrack-single-stim	s647	False
0.1	121.703	0.384	122.087	0	PA_without_intermediate	test	ward_and_allport	82	5.0	0.384	to_board	poldrack-single-stim	s647	False
1.0	122.092	2.408	122.091	0	PA_without_intermediate	test	ward_and_allport	-1	5.0	n/a	feedback	poldrack-single-stim	s647	False
1.109	124.505	1.109	125.614	1	PA_with_intermediate	test	ward_and_allport	82	6.0	1.109	to_hand	poldrack-single-stim	s647	False
0.1	125.615	0.953	126.568	0	PA_with_intermediate	test	ward_and_allport	89	6.0	0.953	to_board	poldrack-single-stim	s647	False
0.1	126.572	1.402	127.974	0	PA_with_intermediate	test	ward_and_allport	82	6.0	1.402	to_hand	poldrack-single-stim	s647	False
0.1	127.975	0.685	128.66	0	PA_with_intermediate	test	ward_and_allport	71	6.0	0.685	to_board	poldrack-single-stim	s647	False
0.1	128.664	0.573	129.237	0	PA_with_intermediate	test	ward_and_allport	82	6.0	0.573	to_hand	poldrack-single-stim	s647	False
0.1	129.237	1.303	130.54	0	PA_with_intermediate	test	ward_and_allport	82	6.0	1.303	to_board	poldrack-single-stim	s647	False
0.1	130.544	0.769	131.313	0	PA_with_intermediate	test	ward_and_allport	89	6.0	0.769	to_hand	poldrack-single-stim	s647	False
0.1	131.314	0.694	132.008	0	PA_with_intermediate	test	ward_and_allport	71	6.0	0.694	to_board	poldrack-single-stim	s647	False
1.0	132.013	2.136	132.012	0	PA_with_intermediate	test	ward_and_allport	-1	6.0	n/a	feedback	poldrack-single-stim	s647	False
1.616	134.154	1.616	135.77	1	PA_without_intermediate	test	ward_and_allport	89	7.0	1.616	to_hand	poldrack-single-stim	s647	False
0.1	135.771	0.492	136.263	0	PA_without_intermediate	test	ward_and_allport	71	7.0	0.492	to_board	poldrack-single-stim	s647	False
0.1	136.266	0.576	136.842	0	PA_without_intermediate	test	ward_and_allport	89	7.0	0.576	to_hand	poldrack-single-stim	s647	False
0.1	136.843	0.449	137.292	0	PA_without_intermediate	test	ward_and_allport	71	7.0	0.449	to_board	poldrack-single-stim	s647	False
0.1	137.296	0.808	138.104	0	PA_without_intermediate	test	ward_and_allport	89	7.0	0.808	to_hand	poldrack-single-stim	s647	False
0.1	138.106	0.495	138.601	0	PA_without_intermediate	test	ward_and_allport	82	7.0	0.495	to_board	poldrack-single-stim	s647	False
1.0	138.607	5.128	138.606	0	PA_without_intermediate	test	ward_and_allport	-1	7.0	n/a	feedback	poldrack-single-stim	s647	False
1.724	143.74	1.724	145.464	1	PA_without_intermediate	test	ward_and_allport	71	8.0	1.724	to_hand	poldrack-single-stim	s647	False
0.1	145.465	0.551	146.016	0	PA_without_intermediate	test	ward_and_allport	82	8.0	0.551	to_board	poldrack-single-stim	s647	False
0.1	146.02	0.949	146.969	0	PA_without_intermediate	test	ward_and_allport	71	8.0	0.949	to_hand	poldrack-single-stim	s647	False
0.1	146.97	0.362	147.332	0	PA_without_intermediate	test	ward_and_allport	89	8.0	0.362	to_board	poldrack-single-stim	s647	False
0.1	147.336	0.742	148.078	0	PA_without_intermediate	test	ward_and_allport	71	8.0	0.742	to_hand	poldrack-single-stim	s647	False
0.1	148.08	0.354	148.434	0	PA_without_intermediate	test	ward_and_allport	82	8.0	0.354	to_board	poldrack-single-stim	s647	False
1.0	148.44	2.136	148.439	0	PA_without_intermediate	test	ward_and_allport	-1	8.0	n/a	feedback	poldrack-single-stim	s647	False
1.499	150.58	1.499	152.079	1	PA_without_intermediate	test	ward_and_allport	89	9.0	1.499	to_hand	poldrack-single-stim	s647	False
0.1	152.081	0.856	152.937	0	PA_without_intermediate	test	ward_and_allport	82	9.0	0.856	to_board	poldrack-single-stim	s647	False
0.1	152.941	0.931	153.872	0	PA_without_intermediate	test	ward_and_allport	89	9.0	0.931	to_hand	poldrack-single-stim	s647	False
0.1	153.874	0.404	154.278	0	PA_without_intermediate	test	ward_and_allport	82	9.0	0.404	to_board	poldrack-single-stim	s647	False
0.1	154.282	1.331	155.613	0	PA_without_intermediate	test	ward_and_allport	89	9.0	1.331	to_hand	poldrack-single-stim	s647	False
0.1	155.615	0.34	155.955	0	PA_without_intermediate	test	ward_and_allport	71	9.0	0.34	to_board	poldrack-single-stim	s647	False
1.0	155.961	5.264	155.96	0	PA_without_intermediate	test	ward_and_allport	-1	9.0	n/a	feedback	poldrack-single-stim	s647	False
0.928	161.23	0.928	162.158	1	PA_with_intermediate	test	ward_and_allport	71	10.0	0.928	to_hand	poldrack-single-stim	s647	False
0.1	162.159	1.339	163.498	0	PA_with_intermediate	test	ward_and_allport	82	10.0	1.339	to_board	poldrack-single-stim	s647	False
0.1	163.502	0.684	164.186	0	PA_with_intermediate	test	ward_and_allport	71	10.0	0.684	to_hand	poldrack-single-stim	s647	False
0.1	164.187	0.656	164.843	0	PA_with_intermediate	test	ward_and_allport	89	10.0	0.656	to_board	poldrack-single-stim	s647	False
0.1	164.847	0.642	165.489	0	PA_with_intermediate	test	ward_and_allport	82	10.0	0.642	to_hand	poldrack-single-stim	s647	False
0.1	165.491	0.995	166.486	0	PA_with_intermediate	test	ward_and_allport	89	10.0	0.995	to_board	poldrack-single-stim	s647	False
1.0	166.492	4.04	166.491	0	PA_with_intermediate	test	ward_and_allport	-1	10.0	n/a	feedback	poldrack-single-stim	s647	False
1.17	170.538	1.17	171.708	1	PA_with_intermediate	test	ward_and_allport	89	11.0	1.17	to_hand	poldrack-single-stim	s647	False
0.1	171.709	0.998	172.707	0	PA_with_intermediate	test	ward_and_allport	82	11.0	0.998	to_board	poldrack-single-stim	s647	False
0.1	172.713	1.012	173.725	0	PA_with_intermediate	test	ward_and_allport	89	11.0	1.012	to_hand	poldrack-single-stim	s647	False
0.1	173.726	0.633	174.359	0	PA_with_intermediate	test	ward_and_allport	71	11.0	0.633	to_board	poldrack-single-stim	s647	False
0.1	174.364	1.014	175.378	0	PA_with_intermediate	test	ward_and_allport	82	11.0	1.014	to_hand	poldrack-single-stim	s647	False
0.1	175.379	0.436	175.815	0	PA_with_intermediate	test	ward_and_allport	71	11.0	0.436	to_board	poldrack-single-stim	s647	False
1.0	175.821	2.136	175.82	0	PA_with_intermediate	test	ward_and_allport	-1	11.0	n/a	feedback	poldrack-single-stim	s647	False
1.801	177.963	1.801	179.764	1	PA_with_intermediate	test	ward_and_allport	71	12.0	1.801	to_hand	poldrack-single-stim	s647	False
0.1	179.764	1.112	180.876	0	PA_with_intermediate	test	ward_and_allport	82	12.0	1.112	to_board	poldrack-single-stim	s647	False
0.1	180.881	0.595	181.476	0	PA_with_intermediate	test	ward_and_allport	71	12.0	0.595	to_hand	poldrack-single-stim	s647	False
0.1	181.478	0.392	181.87	0	PA_with_intermediate	test	ward_and_allport	89	12.0	0.392	to_board	poldrack-single-stim	s647	False
0.1	181.874	0.655	182.529	0	PA_with_intermediate	test	ward_and_allport	82	12.0	0.655	to_hand	poldrack-single-stim	s647	False
0.1	182.53	0.373	182.903	0	PA_with_intermediate	test	ward_and_allport	71	12.0	0.373	to_board	poldrack-single-stim	s647	False
1.0	182.91	2.408	182.909	0	PA_with_intermediate	test	ward_and_allport	-1	12.0	n/a	feedback	poldrack-single-stim	s647	False
0.971	185.324	0.971	186.295	1	PA_without_intermediate	test	ward_and_allport	82	13.0	0.971	to_hand	poldrack-single-stim	s647	False
0.1	186.297	0.87	187.167	0	PA_without_intermediate	test	ward_and_allport	71	13.0	0.87	to_board	poldrack-single-stim	s647	False
0.1	187.172	0.81	187.982	0	PA_without_intermediate	test	ward_and_allport	82	13.0	0.81	to_hand	poldrack-single-stim	s647	False
0.1	187.984	0.509	188.493	0	PA_without_intermediate	test	ward_and_allport	89	13.0	0.509	to_board	poldrack-single-stim	s647	False
0.1	188.497	0.579	189.076	0	PA_without_intermediate	test	ward_and_allport	82	13.0	0.579	to_hand	poldrack-single-stim	s647	False
0.1	189.077	0.446	189.523	0	PA_without_intermediate	test	ward_and_allport	71	13.0	0.446	to_board	poldrack-single-stim	s647	False
1.0	189.529	2.68	189.528	0	PA_without_intermediate	test	ward_and_allport	-1	13.0	n/a	feedback	poldrack-single-stim	s647	False
0.98	192.214	0.98	193.194	1	PA_with_intermediate	test	ward_and_allport	89	14.0	0.98	to_hand	poldrack-single-stim	s647	False
0.1	193.196	1.087	194.283	0	PA_with_intermediate	test	ward_and_allport	82	14.0	1.087	to_board	poldrack-single-stim	s647	False
0.1	194.288	0.826	195.114	0	PA_with_intermediate	test	ward_and_allport	89	14.0	0.826	to_hand	poldrack-single-stim	s647	False
0.1	195.115	0.39	195.505	0	PA_with_intermediate	test	ward_and_allport	71	14.0	0.39	to_board	poldrack-single-stim	s647	False
0.1	195.51	0.941	196.451	0	PA_with_intermediate	test	ward_and_allport	82	14.0	0.941	to_hand	poldrack-single-stim	s647	False
0.1	196.452	0.398	196.85	0	PA_with_intermediate	test	ward_and_allport	89	14.0	0.398	to_board	poldrack-single-stim	s647	False
1.0	196.856	4.72	196.855	0	PA_with_intermediate	test	ward_and_allport	-1	14.0	n/a	feedback	poldrack-single-stim	s647	False
0.951	206.584	0.951	207.535	1	PA_without_intermediate	test	ward_and_allport	82	15.0	0.951	to_hand	poldrack-single-stim	s647	False
0.1	207.536	0.589	208.125	0	PA_without_intermediate	test	ward_and_allport	89	15.0	0.589	to_board	poldrack-single-stim	s647	False
0.1	208.129	1.17	209.299	0	PA_without_intermediate	test	ward_and_allport	82	15.0	1.17	to_hand	poldrack-single-stim	s647	False
0.1	209.3	0.313	209.613	0	PA_without_intermediate	test	ward_and_allport	71	15.0	0.313	to_board	poldrack-single-stim	s647	False
0.1	209.619	0.407	210.026	0	PA_without_intermediate	test	ward_and_allport	82	15.0	0.407	to_hand	poldrack-single-stim	s647	False
0.1	210.027	0.323	210.35	0	PA_without_intermediate	test	ward_and_allport	89	15.0	0.323	to_board	poldrack-single-stim	s647	False
1.0	210.357	3.224	210.356	0	PA_without_intermediate	test	ward_and_allport	-1	15.0	n/a	feedback	poldrack-single-stim	s647	False
0.914	213.587	0.914	214.501	1	PA_without_intermediate	test	ward_and_allport	82	16.0	0.914	to_hand	poldrack-single-stim	s647	False
0.1	214.502	1.181	215.683	0	PA_without_intermediate	test	ward_and_allport	71	16.0	1.181	to_board	poldrack-single-stim	s647	False
0.1	215.688	0.439	216.127	0	PA_without_intermediate	test	ward_and_allport	82	16.0	0.439	to_hand	poldrack-single-stim	s647	False
0.1	216.127	0.315	216.442	0	PA_without_intermediate	test	ward_and_allport	89	16.0	0.315	to_board	poldrack-single-stim	s647	False
0.1	216.447	0.589	217.036	0	PA_without_intermediate	test	ward_and_allport	82	16.0	0.589	to_hand	poldrack-single-stim	s647	False
0.1	217.037	0.424	217.461	0	PA_without_intermediate	test	ward_and_allport	71	16.0	0.424	to_board	poldrack-single-stim	s647	False
1.0	217.468	2.272	217.467	0	PA_without_intermediate	test	ward_and_allport	-1	16.0	n/a	feedback	poldrack-single-stim	s647	False
1.006	219.745	1.006	220.751	1	PA_with_intermediate	test	ward_and_allport	82	17.0	1.006	to_hand	poldrack-single-stim	s647	False
0.1	220.753	1.145	221.898	0	PA_with_intermediate	test	ward_and_allport	89	17.0	1.145	to_board	poldrack-single-stim	s647	False
0.1	221.902	0.864	222.766	0	PA_with_intermediate	test	ward_and_allport	82	17.0	0.864	to_hand	poldrack-single-stim	s647	False
0.1	222.767	0.563	223.33	0	PA_with_intermediate	test	ward_and_allport	71	17.0	0.563	to_board	poldrack-single-stim	s647	False
0.1	223.335	0.649	223.984	0	PA_with_intermediate	test	ward_and_allport	82	17.0	0.649	to_hand	poldrack-single-stim	s647	False
0.1	223.986	1.305	225.291	0	PA_with_intermediate	test	ward_and_allport	82	17.0	1.305	to_board	poldrack-single-stim	s647	False
0.1	225.296	0.701	225.997	0	PA_with_intermediate	test	ward_and_allport	89	17.0	0.701	to_hand	poldrack-single-stim	s647	False
0.1	225.999	0.419	226.418	0	PA_with_intermediate	test	ward_and_allport	71	17.0	0.419	to_board	poldrack-single-stim	s647	False
1.0	226.425	3.632	226.424	0	PA_with_intermediate	test	ward_and_allport	-1	17.0	n/a	feedback	poldrack-single-stim	s647	False
0.997	230.064	0.997	231.061	1	PA_without_intermediate	test	ward_and_allport	82	18.0	0.997	to_hand	poldrack-single-stim	s647	False
0.1	231.062	0.457	231.519	0	PA_without_intermediate	test	ward_and_allport	89	18.0	0.457	to_board	poldrack-single-stim	s647	False
0.1	231.525	0.734	232.259	0	PA_without_intermediate	test	ward_and_allport	82	18.0	0.734	to_hand	poldrack-single-stim	s647	False
0.1	232.261	0.952	233.213	0	PA_without_intermediate	test	ward_and_allport	89	18.0	0.952	to_board	poldrack-single-stim	s647	False
0.1	233.221	0.681	233.902	0	PA_without_intermediate	test	ward_and_allport	82	18.0	0.681	to_hand	poldrack-single-stim	s647	False
0.1	233.904	0.432	234.336	0	PA_without_intermediate	test	ward_and_allport	71	18.0	0.432	to_board	poldrack-single-stim	s647	False
1.0	234.343	2.408	234.342	0	PA_without_intermediate	test	ward_and_allport	-1	18.0	n/a	feedback	poldrack-single-stim	s647	False
0.746	236.759	0.746	237.505	1	PA_without_intermediate	test	ward_and_allport	82	19.0	0.746	to_hand	poldrack-single-stim	s647	False
0.1	237.506	0.794	238.3	0	PA_without_intermediate	test	ward_and_allport	71	19.0	0.794	to_board	poldrack-single-stim	s647	False
0.1	238.307	0.958	239.265	0	PA_without_intermediate	test	ward_and_allport	82	19.0	0.958	to_hand	poldrack-single-stim	s647	False
0.1	239.266	1.084	240.35	0	PA_without_intermediate	test	ward_and_allport	71	19.0	1.084	to_board	poldrack-single-stim	s647	False
0.1	240.357	0.493	240.85	0	PA_without_intermediate	test	ward_and_allport	82	19.0	0.493	to_hand	poldrack-single-stim	s647	False
0.1	240.852	0.329	241.181	0	PA_without_intermediate	test	ward_and_allport	89	19.0	0.329	to_board	poldrack-single-stim	s647	False
1.0	241.188	2.0	241.187	0	PA_without_intermediate	test	ward_and_allport	-1	19.0	n/a	feedback	poldrack-single-stim	s647	False
0.912	243.196	0.912	244.108	1	PA_with_intermediate	test	ward_and_allport	82	20.0	0.912	to_hand	poldrack-single-stim	s647	False
0.1	244.11	1.491	245.601	0	PA_with_intermediate	test	ward_and_allport	71	20.0	1.491	to_board	poldrack-single-stim	s647	False
0.1	245.607	0.707	246.314	0	PA_with_intermediate	test	ward_and_allport	82	20.0	0.707	to_hand	poldrack-single-stim	s647	False
0.1	246.316	0.581	246.897	0	PA_with_intermediate	test	ward_and_allport	89	20.0	0.581	to_board	poldrack-single-stim	s647	False
0.1	246.904	0.695	247.599	0	PA_with_intermediate	test	ward_and_allport	71	20.0	0.695	to_hand	poldrack-single-stim	s647	False
0.1	247.6	0.348	247.948	0	PA_with_intermediate	test	ward_and_allport	89	20.0	0.348	to_board	poldrack-single-stim	s647	False
1.0	247.956	2.0	247.955	0	PA_with_intermediate	test	ward_and_allport	-1	20.0	n/a	feedback	poldrack-single-stim	s647	False
1.042	249.962	1.042	251.004	1	PA_with_intermediate	test	ward_and_allport	71	21.0	1.042	to_hand	poldrack-single-stim	s647	False
0.1	251.005	1.439	252.444	0	PA_with_intermediate	test	ward_and_allport	82	21.0	1.439	to_board	poldrack-single-stim	s647	False
0.1	252.451	0.551	253.002	0	PA_with_intermediate	test	ward_and_allport	71	21.0	0.551	to_hand	poldrack-single-stim	s647	False
0.1	253.003	0.412	253.415	0	PA_with_intermediate	test	ward_and_allport	89	21.0	0.412	to_board	poldrack-single-stim	s647	False
0.1	253.422	0.734	254.156	0	PA_with_intermediate	test	ward_and_allport	82	21.0	0.734	to_hand	poldrack-single-stim	s647	False
0.1	254.156	0.383	254.539	0	PA_with_intermediate	test	ward_and_allport	71	21.0	0.383	to_board	poldrack-single-stim	s647	False
1.0	254.547	2.0	254.546	0	PA_with_intermediate	test	ward_and_allport	-1	21.0	n/a	feedback	poldrack-single-stim	s647	False
0.858	256.554	0.858	257.412	1	PA_with_intermediate	test	ward_and_allport	71	22.0	0.858	to_hand	poldrack-single-stim	s647	False
0.1	257.413	1.712	259.125	0	PA_with_intermediate	test	ward_and_allport	89	22.0	1.712	to_board	poldrack-single-stim	s647	False
0.1	259.132	0.471	259.603	0	PA_with_intermediate	test	ward_and_allport	71	22.0	0.471	to_hand	poldrack-single-stim	s647	False
0.1	259.604	0.774	260.378	0	PA_with_intermediate	test	ward_and_allport	82	22.0	0.774	to_board	poldrack-single-stim	s647	False
0.1	260.385	0.387	260.772	0	PA_with_intermediate	test	ward_and_allport	89	22.0	0.387	to_hand	poldrack-single-stim	s647	False
0.1	260.773	0.379	261.152	0	PA_with_intermediate	test	ward_and_allport	71	22.0	0.379	to_board	poldrack-single-stim	s647	False
1.0	261.161	2.408	261.16	0	PA_with_intermediate	test	ward_and_allport	-1	22.0	n/a	feedback	poldrack-single-stim	s647	False
0.955	263.577	0.955	264.532	1	PA_without_intermediate	test	ward_and_allport	71	23.0	0.955	to_hand	poldrack-single-stim	s647	False
0.1	264.532	0.684	265.216	0	PA_without_intermediate	test	ward_and_allport	89	23.0	0.684	to_board	poldrack-single-stim	s647	False
0.1	265.223	0.519	265.742	0	PA_without_intermediate	test	ward_and_allport	71	23.0	0.519	to_hand	poldrack-single-stim	s647	False
0.1	265.743	0.636	266.379	0	PA_without_intermediate	test	ward_and_allport	89	23.0	0.636	to_board	poldrack-single-stim	s647	False
0.1	266.387	0.625	267.012	0	PA_without_intermediate	test	ward_and_allport	71	23.0	0.625	to_hand	poldrack-single-stim	s647	False
0.1	267.013	0.661	267.674	0	PA_without_intermediate	test	ward_and_allport	82	23.0	0.661	to_board	poldrack-single-stim	s647	False
1.0	267.683	2.816	267.682	0	PA_without_intermediate	test	ward_and_allport	-1	23.0	n/a	feedback	poldrack-single-stim	s647	False
0.81	270.507	0.81	271.317	1	PA_with_intermediate	test	ward_and_allport	82	24.0	0.81	to_hand	poldrack-single-stim	s647	False
0.1	271.318	1.022	272.34	0	PA_with_intermediate	test	ward_and_allport	89	24.0	1.022	to_board	poldrack-single-stim	s647	False
0.1	272.347	1.743	274.09	0	PA_with_intermediate	test	ward_and_allport	82	24.0	1.743	to_hand	poldrack-single-stim	s647	False
0.1	274.092	0.34	274.432	0	PA_with_intermediate	test	ward_and_allport	71	24.0	0.34	to_board	poldrack-single-stim	s647	False
0.1	274.439	0.623	275.062	0	PA_with_intermediate	test	ward_and_allport	89	24.0	0.623	to_hand	poldrack-single-stim	s647	False
0.1	275.063	0.343	275.406	0	PA_with_intermediate	test	ward_and_allport	82	24.0	0.343	to_board	poldrack-single-stim	s647	False
1.0	275.415	4.176	275.414	0	PA_with_intermediate	test	ward_and_allport	-1	24.0	n/a	feedback	poldrack-single-stim	s647	False
1.874	279.6	1.874	281.474	1	PA_with_intermediate	test	ward_and_allport	89	25.0	1.874	to_hand	poldrack-single-stim	s647	False
0.1	281.476	1.057	282.533	0	PA_with_intermediate	test	ward_and_allport	82	25.0	1.057	to_board	poldrack-single-stim	s647	False
0.1	282.541	0.909	283.45	0	PA_with_intermediate	test	ward_and_allport	89	25.0	0.909	to_hand	poldrack-single-stim	s647	False
0.1	283.452	0.397	283.849	0	PA_with_intermediate	test	ward_and_allport	71	25.0	0.397	to_board	poldrack-single-stim	s647	False
0.1	283.857	0.609	284.466	0	PA_with_intermediate	test	ward_and_allport	82	25.0	0.609	to_hand	poldrack-single-stim	s647	False
0.1	284.467	0.321	284.788	0	PA_with_intermediate	test	ward_and_allport	89	25.0	0.321	to_board	poldrack-single-stim	s647	False
1.0	284.796	3.36	284.795	0	PA_with_intermediate	test	ward_and_allport	-1	25.0	n/a	feedback	poldrack-single-stim	s647	False
0.634	288.164	0.634	288.798	1	PA_with_intermediate	test	ward_and_allport	82	26.0	0.634	to_hand	poldrack-single-stim	s647	False
0.1	288.8	0.81	289.61	0	PA_with_intermediate	test	ward_and_allport	89	26.0	0.81	to_board	poldrack-single-stim	s647	False
0.1	289.616	1.029	290.645	0	PA_with_intermediate	test	ward_and_allport	82	26.0	1.029	to_hand	poldrack-single-stim	s647	False
0.1	290.647	1.313	291.96	0	PA_with_intermediate	test	ward_and_allport	71	26.0	1.313	to_board	poldrack-single-stim	s647	False
0.1	291.966	0.307	292.273	0	PA_with_intermediate	test	ward_and_allport	89	26.0	0.307	to_hand	poldrack-single-stim	s647	False
0.1	292.274	0.34	292.614	0	PA_with_intermediate	test	ward_and_allport	82	26.0	0.34	to_board	poldrack-single-stim	s647	False
0.1	292.621	0.507	293.128	0	PA_with_intermediate	test	ward_and_allport	71	26.0	0.507	to_hand	poldrack-single-stim	s647	False
0.1	293.13	0.298	293.428	0	PA_with_intermediate	test	ward_and_allport	89	26.0	0.298	to_board	poldrack-single-stim	s647	False
1.0	293.436	2.0	293.435	0	PA_with_intermediate	test	ward_and_allport	-1	26.0	n/a	feedback	poldrack-single-stim	s647	False
1.306	295.444	1.306	296.75	1	PA_without_intermediate	test	ward_and_allport	89	27.0	1.306	to_hand	poldrack-single-stim	s647	False
0.1	296.751	0.773	297.524	0	PA_without_intermediate	test	ward_and_allport	82	27.0	0.773	to_board	poldrack-single-stim	s647	False
0.1	297.531	0.73	298.261	0	PA_without_intermediate	test	ward_and_allport	89	27.0	0.73	to_hand	poldrack-single-stim	s647	False
0.1	298.263	0.547	298.81	0	PA_without_intermediate	test	ward_and_allport	71	27.0	0.547	to_board	poldrack-single-stim	s647	False
0.1	298.816	0.562	299.378	0	PA_without_intermediate	test	ward_and_allport	89	27.0	0.562	to_hand	poldrack-single-stim	s647	False
0.1	299.379	0.568	299.947	0	PA_without_intermediate	test	ward_and_allport	82	27.0	0.568	to_board	poldrack-single-stim	s647	False
1.0	299.957	2.408	299.956	0	PA_without_intermediate	test	ward_and_allport	-1	27.0	n/a	feedback	poldrack-single-stim	s647	False
0.914	302.374	0.914	303.288	1	PA_with_intermediate	test	ward_and_allport	82	28.0	0.914	to_hand	poldrack-single-stim	s647	False
0.1	303.288	1.076	304.364	0	PA_with_intermediate	test	ward_and_allport	89	28.0	1.076	to_board	poldrack-single-stim	s647	False
0.1	304.371	1.111	305.482	0	PA_with_intermediate	test	ward_and_allport	82	28.0	1.111	to_hand	poldrack-single-stim	s647	False
0.1	305.483	0.306	305.789	0	PA_with_intermediate	test	ward_and_allport	71	28.0	0.306	to_board	poldrack-single-stim	s647	False
0.1	305.796	0.557	306.353	0	PA_with_intermediate	test	ward_and_allport	89	28.0	0.557	to_hand	poldrack-single-stim	s647	False
0.1	306.354	0.404	306.758	0	PA_with_intermediate	test	ward_and_allport	82	28.0	0.404	to_board	poldrack-single-stim	s647	False
1.0	306.768	2.816	306.767	0	PA_with_intermediate	test	ward_and_allport	-1	28.0	n/a	feedback	poldrack-single-stim	s647	False
1.611	309.591	1.611	311.202	1	PA_without_intermediate	test	ward_and_allport	82	29.0	1.611	to_hand	poldrack-single-stim	s647	False
0.1	311.203	0.365	311.568	0	PA_without_intermediate	test	ward_and_allport	71	29.0	0.365	to_board	poldrack-single-stim	s647	False
0.1	311.576	2.215	313.791	0	PA_without_intermediate	test	ward_and_allport	82	29.0	2.215	to_hand	poldrack-single-stim	s647	False
0.1	313.793	0.391	314.184	0	PA_without_intermediate	test	ward_and_allport	89	29.0	0.391	to_board	poldrack-single-stim	s647	False
0.1	314.192	0.183	314.375	0	PA_without_intermediate	test	ward_and_allport	89	29.0	0.183	to_hand	poldrack-single-stim	s647	False
0.1	314.376	0.579	314.955	0	PA_without_intermediate	test	ward_and_allport	71	29.0	0.579	to_board	poldrack-single-stim	s647	False
0.1	314.964	0.89	315.854	0	PA_without_intermediate	test	ward_and_allport	82	29.0	0.89	to_hand	poldrack-single-stim	s647	False
0.1	315.854	0.336	316.19	0	PA_without_intermediate	test	ward_and_allport	89	29.0	0.336	to_board	poldrack-single-stim	s647	False
1.0	316.201	3.088	316.2	0	PA_without_intermediate	test	ward_and_allport	-1	29.0	n/a	feedback	poldrack-single-stim	s647	False
1.199	324.303	1.199	325.502	1	PA_without_intermediate	test	ward_and_allport	71	30.0	1.199	to_hand	poldrack-single-stim	s647	False
0.1	325.504	0.767	326.271	0	PA_without_intermediate	test	ward_and_allport	82	30.0	0.767	to_board	poldrack-single-stim	s647	False
0.1	326.279	0.591	326.87	0	PA_without_intermediate	test	ward_and_allport	71	30.0	0.591	to_hand	poldrack-single-stim	s647	False
0.1	326.871	0.717	327.588	0	PA_without_intermediate	test	ward_and_allport	82	30.0	0.717	to_board	poldrack-single-stim	s647	False
0.1	327.598	0.712	328.31	0	PA_without_intermediate	test	ward_and_allport	71	30.0	0.712	to_hand	poldrack-single-stim	s647	False
0.1	328.311	0.369	328.68	0	PA_without_intermediate	test	ward_and_allport	89	30.0	0.369	to_board	poldrack-single-stim	s647	False
1.0	328.691	2.136	328.69	0	PA_without_intermediate	test	ward_and_allport	-1	30.0	n/a	feedback	poldrack-single-stim	s647	False
1.752	330.836	1.752	332.588	1	PA_without_intermediate	test	ward_and_allport	89	31.0	1.752	to_hand	poldrack-single-stim	s647	False
0.1	332.59	0.631	333.221	0	PA_without_intermediate	test	ward_and_allport	71	31.0	0.631	to_board	poldrack-single-stim	s647	False
0.1	333.227	1.219	334.446	0	PA_without_intermediate	test	ward_and_allport	89	31.0	1.219	to_hand	poldrack-single-stim	s647	False
0.1	334.448	0.294	334.742	0	PA_without_intermediate	test	ward_and_allport	82	31.0	0.294	to_board	poldrack-single-stim	s647	False
0.1	334.749	0.433	335.182	0	PA_without_intermediate	test	ward_and_allport	89	31.0	0.433	to_hand	poldrack-single-stim	s647	False
0.1	335.184	0.326	335.51	0	PA_without_intermediate	test	ward_and_allport	71	31.0	0.326	to_board	poldrack-single-stim	s647	False
1.0	335.52	7.168	335.519	0	PA_without_intermediate	test	ward_and_allport	-1	31.0	n/a	feedback	poldrack-single-stim	s647	False
1.065	342.696	1.065	343.761	1	PA_without_intermediate	test	ward_and_allport	89	32.0	1.065	to_hand	poldrack-single-stim	s647	False
0.1	343.763	0.576	344.339	0	PA_without_intermediate	test	ward_and_allport	71	32.0	0.576	to_board	poldrack-single-stim	s647	False
0.1	344.348	0.498	344.846	0	PA_without_intermediate	test	ward_and_allport	89	32.0	0.498	to_hand	poldrack-single-stim	s647	False
0.1	344.848	0.463	345.311	0	PA_without_intermediate	test	ward_and_allport	71	32.0	0.463	to_board	poldrack-single-stim	s647	False
0.1	345.321	0.456	345.777	0	PA_without_intermediate	test	ward_and_allport	89	32.0	0.456	to_hand	poldrack-single-stim	s647	False
0.1	345.778	0.347	346.125	0	PA_without_intermediate	test	ward_and_allport	82	32.0	0.347	to_board	poldrack-single-stim	s647	False
1.0	346.135	2.816	346.134	0	PA_without_intermediate	test	ward_and_allport	-1	32.0	n/a	feedback	poldrack-single-stim	s647	False
0.912	348.959	0.912	349.871	1	PA_with_intermediate	test	ward_and_allport	82	33.0	0.912	to_hand	poldrack-single-stim	s647	False
0.1	349.872	1.654	351.526	0	PA_with_intermediate	test	ward_and_allport	71	33.0	1.654	to_board	poldrack-single-stim	s647	False
0.1	351.534	0.61	352.144	0	PA_with_intermediate	test	ward_and_allport	82	33.0	0.61	to_hand	poldrack-single-stim	s647	False
0.1	352.145	0.342	352.487	0	PA_with_intermediate	test	ward_and_allport	89	33.0	0.342	to_board	poldrack-single-stim	s647	False
0.1	352.495	0.452	352.947	0	PA_with_intermediate	test	ward_and_allport	71	33.0	0.452	to_hand	poldrack-single-stim	s647	False
0.1	352.948	0.435	353.383	0	PA_with_intermediate	test	ward_and_allport	82	33.0	0.435	to_board	poldrack-single-stim	s647	False
1.0	353.394	2.952	353.393	0	PA_with_intermediate	test	ward_and_allport	-1	33.0	n/a	feedback	poldrack-single-stim	s647	False
0.728	356.354	0.728	357.082	1	PA_with_intermediate	test	ward_and_allport	71	34.0	0.728	to_hand	poldrack-single-stim	s647	False
0.1	357.084	1.095	358.179	0	PA_with_intermediate	test	ward_and_allport	82	34.0	1.095	to_board	poldrack-single-stim	s647	False
0.1	358.186	0.473	358.659	0	PA_with_intermediate	test	ward_and_allport	71	34.0	0.473	to_hand	poldrack-single-stim	s647	False
0.1	358.659	0.417	359.076	0	PA_with_intermediate	test	ward_and_allport	89	34.0	0.417	to_board	poldrack-single-stim	s647	False
0.1	359.083	0.471	359.554	0	PA_with_intermediate	test	ward_and_allport	82	34.0	0.471	to_hand	poldrack-single-stim	s647	False
0.1	359.555	0.381	359.936	0	PA_with_intermediate	test	ward_and_allport	89	34.0	0.381	to_board	poldrack-single-stim	s647	False
1.0	359.944	2.136	359.943	0	PA_with_intermediate	test	ward_and_allport	-1	34.0	n/a	feedback	poldrack-single-stim	s647	False
1.751	362.088	1.751	363.839	1	PA_without_intermediate	test	ward_and_allport	89	35.0	1.751	to_hand	poldrack-single-stim	s647	False
0.1	363.839	0.785	364.624	0	PA_without_intermediate	test	ward_and_allport	82	35.0	0.785	to_board	poldrack-single-stim	s647	False
0.1	364.631	0.88	365.511	0	PA_without_intermediate	test	ward_and_allport	89	35.0	0.88	to_hand	poldrack-single-stim	s647	False
0.1	365.512	0.403	365.915	0	PA_without_intermediate	test	ward_and_allport	82	35.0	0.403	to_board	poldrack-single-stim	s647	False
0.1	365.922	0.821	366.743	0	PA_without_intermediate	test	ward_and_allport	89	35.0	0.821	to_hand	poldrack-single-stim	s647	False
0.1	366.744	0.401	367.145	0	PA_without_intermediate	test	ward_and_allport	71	35.0	0.401	to_board	poldrack-single-stim	s647	False
1.0	367.152	2.68	367.151	0	PA_without_intermediate	test	ward_and_allport	-1	35.0	n/a	feedback	poldrack-single-stim	s647	False
1.179	369.843	1.179	371.022	1	PA_without_intermediate	test	ward_and_allport	71	36.0	1.179	to_hand	poldrack-single-stim	s647	False
0.1	371.023	0.7	371.723	0	PA_without_intermediate	test	ward_and_allport	89	36.0	0.7	to_board	poldrack-single-stim	s647	False
0.1	371.733	0.652	372.385	0	PA_without_intermediate	test	ward_and_allport	71	36.0	0.652	to_hand	poldrack-single-stim	s647	False
0.1	372.386	0.373	372.759	0	PA_without_intermediate	test	ward_and_allport	82	36.0	0.373	to_board	poldrack-single-stim	s647	False
0.1	372.767	0.342	373.109	0	PA_without_intermediate	test	ward_and_allport	71	36.0	0.342	to_hand	poldrack-single-stim	s647	False
0.1	373.11	0.313	373.423	0	PA_without_intermediate	test	ward_and_allport	89	36.0	0.313	to_board	poldrack-single-stim	s647	False
1.0	373.432	3.088	373.431	0	PA_without_intermediate	test	ward_and_allport	-1	36.0	n/a	feedback	poldrack-single-stim	s647	False
1.347	376.528	1.347	377.875	1	PA_with_intermediate	test	ward_and_allport	89	37.0	1.347	to_hand	poldrack-single-stim	s647	False
0.1	377.877	1.094	378.971	0	PA_with_intermediate	test	ward_and_allport	71	37.0	1.094	to_board	poldrack-single-stim	s647	False
0.1	378.979	0.43	379.409	0	PA_with_intermediate	test	ward_and_allport	89	37.0	0.43	to_hand	poldrack-single-stim	s647	False
0.1	379.411	0.405	379.816	0	PA_with_intermediate	test	ward_and_allport	82	37.0	0.405	to_board	poldrack-single-stim	s647	False
0.1	379.826	0.431	380.257	0	PA_with_intermediate	test	ward_and_allport	71	37.0	0.431	to_hand	poldrack-single-stim	s647	False
0.1	380.259	0.389	380.648	0	PA_with_intermediate	test	ward_and_allport	82	37.0	0.389	to_board	poldrack-single-stim	s647	False
1.0	380.659	2.0	380.658	0	PA_with_intermediate	test	ward_and_allport	-1	37.0	n/a	feedback	poldrack-single-stim	s647	False
1.209	382.667	1.209	383.876	1	PA_without_intermediate	test	ward_and_allport	82	38.0	1.209	to_hand	poldrack-single-stim	s647	False
0.1	383.877	0.514	384.391	0	PA_without_intermediate	test	ward_and_allport	89	38.0	0.514	to_board	poldrack-single-stim	s647	False
0.1	384.4	0.682	385.082	0	PA_without_intermediate	test	ward_and_allport	82	38.0	0.682	to_hand	poldrack-single-stim	s647	False
0.1	385.083	0.287	385.37	0	PA_without_intermediate	test	ward_and_allport	89	38.0	0.287	to_board	poldrack-single-stim	s647	False
0.1	385.377	1.294	386.671	0	PA_without_intermediate	test	ward_and_allport	82	38.0	1.294	to_hand	poldrack-single-stim	s647	False
0.1	386.673	0.336	387.009	0	PA_without_intermediate	test	ward_and_allport	71	38.0	0.336	to_board	poldrack-single-stim	s647	False
1.0	387.017	2.0	387.016	0	PA_without_intermediate	test	ward_and_allport	-1	38.0	n/a	feedback	poldrack-single-stim	s647	False
1.191	389.025	1.191	390.216	1	PA_without_intermediate	test	ward_and_allport	71	39.0	1.191	to_hand	poldrack-single-stim	s647	False
0.1	390.218	0.682	390.9	0	PA_without_intermediate	test	ward_and_allport	82	39.0	0.682	to_board	poldrack-single-stim	s647	False
0.1	390.906	0.367	391.273	0	PA_without_intermediate	test	ward_and_allport	71	39.0	0.367	to_hand	poldrack-single-stim	s647	False
0.1	391.274	0.75	392.024	0	PA_without_intermediate	test	ward_and_allport	82	39.0	0.75	to_board	poldrack-single-stim	s647	False
0.1	392.031	0.363	392.394	0	PA_without_intermediate	test	ward_and_allport	71	39.0	0.363	to_hand	poldrack-single-stim	s647	False
0.1	392.396	0.333	392.729	0	PA_without_intermediate	test	ward_and_allport	89	39.0	0.333	to_board	poldrack-single-stim	s647	False
1.0	392.738	2.0	392.737	0	PA_without_intermediate	test	ward_and_allport	-1	39.0	n/a	feedback	poldrack-single-stim	s647	False
1.497	394.746	1.497	396.243	1	PA_with_intermediate	test	ward_and_allport	82	40.0	1.497	to_hand	poldrack-single-stim	s647	False
0.1	396.243	0.937	397.18	0	PA_with_intermediate	test	ward_and_allport	71	40.0	0.937	to_board	poldrack-single-stim	s647	False
0.1	397.188	0.496	397.684	0	PA_with_intermediate	test	ward_and_allport	82	40.0	0.496	to_hand	poldrack-single-stim	s647	False
0.1	397.686	0.367	398.053	0	PA_with_intermediate	test	ward_and_allport	89	40.0	0.367	to_board	poldrack-single-stim	s647	False
0.1	398.06	0.412	398.472	0	PA_with_intermediate	test	ward_and_allport	71	40.0	0.412	to_hand	poldrack-single-stim	s647	False
0.1	398.472	0.33	398.802	0	PA_with_intermediate	test	ward_and_allport	89	40.0	0.33	to_board	poldrack-single-stim	s647	False
1.0	398.811	2.544	398.81	0	PA_with_intermediate	test	ward_and_allport	-1	40.0	n/a	feedback	poldrack-single-stim	s647	False
0.935	401.362	0.935	402.297	1	PA_without_intermediate	test	ward_and_allport	82	41.0	0.935	to_hand	poldrack-single-stim	s647	False
0.1	402.298	0.355	402.653	0	PA_without_intermediate	test	ward_and_allport	89	41.0	0.355	to_board	poldrack-single-stim	s647	False
0.1	402.661	1.059	403.72	0	PA_without_intermediate	test	ward_and_allport	82	41.0	1.059	to_hand	poldrack-single-stim	s647	False
0.1	403.72	0.297	404.017	0	PA_without_intermediate	test	ward_and_allport	71	41.0	0.297	to_board	poldrack-single-stim	s647	False
0.1	404.025	0.412	404.437	0	PA_without_intermediate	test	ward_and_allport	82	41.0	0.412	to_hand	poldrack-single-stim	s647	False
0.1	404.438	0.264	404.702	0	PA_without_intermediate	test	ward_and_allport	89	41.0	0.264	to_board	poldrack-single-stim	s647	False
1.0	404.711	2.272	404.71	0	PA_without_intermediate	test	ward_and_allport	-1	41.0	n/a	feedback	poldrack-single-stim	s647	False
0.923	406.99	0.923	407.913	1	PA_with_intermediate	test	ward_and_allport	89	42.0	0.923	to_hand	poldrack-single-stim	s647	False
0.1	407.915	1.342	409.257	0	PA_with_intermediate	test	ward_and_allport	71	42.0	1.342	to_board	poldrack-single-stim	s647	False
0.1	409.265	0.453	409.718	0	PA_with_intermediate	test	ward_and_allport	89	42.0	0.453	to_hand	poldrack-single-stim	s647	False
0.1	409.719	0.505	410.224	0	PA_with_intermediate	test	ward_and_allport	82	42.0	0.505	to_board	poldrack-single-stim	s647	False
0.1	410.232	0.527	410.759	0	PA_with_intermediate	test	ward_and_allport	89	42.0	0.527	to_hand	poldrack-single-stim	s647	False
0.1	410.76	1.284	412.044	0	PA_with_intermediate	test	ward_and_allport	89	42.0	1.284	to_board	poldrack-single-stim	s647	False
0.1	412.05	0.358	412.408	0	PA_with_intermediate	test	ward_and_allport	71	42.0	0.358	to_hand	poldrack-single-stim	s647	False
0.1	412.41	0.303	412.713	0	PA_with_intermediate	test	ward_and_allport	89	42.0	0.303	to_board	poldrack-single-stim	s647	False
1.0	412.721	4.04	412.72	0	PA_with_intermediate	test	ward_and_allport	-1	42.0	n/a	feedback	poldrack-single-stim	s647	False
1.067	416.769	1.067	417.836	1	PA_with_intermediate	test	ward_and_allport	71	43.0	1.067	to_hand	poldrack-single-stim	s647	False
0.1	417.838	0.961	418.799	0	PA_with_intermediate	test	ward_and_allport	89	43.0	0.961	to_board	poldrack-single-stim	s647	False
0.1	418.81	0.454	419.264	0	PA_with_intermediate	test	ward_and_allport	71	43.0	0.454	to_hand	poldrack-single-stim	s647	False
0.1	419.265	0.421	419.686	0	PA_with_intermediate	test	ward_and_allport	82	43.0	0.421	to_board	poldrack-single-stim	s647	False
0.1	419.697	0.435	420.132	0	PA_with_intermediate	test	ward_and_allport	89	43.0	0.435	to_hand	poldrack-single-stim	s647	False
0.1	420.133	0.2	420.333	0	PA_with_intermediate	test	ward_and_allport	89	43.0	0.2	to_board	poldrack-single-stim	s647	False
0.1	420.343	0.465	420.808	0	PA_with_intermediate	test	ward_and_allport	82	43.0	0.465	to_hand	poldrack-single-stim	s647	False
0.1	420.81	1.383	422.193	0	PA_with_intermediate	test	ward_and_allport	71	43.0	1.383	to_board	poldrack-single-stim	s647	False
0.1	422.202	0.996	423.198	0	PA_with_intermediate	test	ward_and_allport	71	43.0	0.996	to_hand	poldrack-single-stim	s647	False
0.1	423.2	0.507	423.707	0	PA_with_intermediate	test	ward_and_allport	82	43.0	0.507	to_board	poldrack-single-stim	s647	False
0.1	423.716	0.382	424.098	0	PA_with_intermediate	test	ward_and_allport	89	43.0	0.382	to_hand	poldrack-single-stim	s647	False
0.1	424.098	0.601	424.699	0	PA_with_intermediate	test	ward_and_allport	82	43.0	0.601	to_board	poldrack-single-stim	s647	False
1.0	424.71	2.272	424.709	0	PA_with_intermediate	test	ward_and_allport	-1	43.0	n/a	feedback	poldrack-single-stim	s647	False
0.853	426.992	0.853	427.845	1	PA_with_intermediate	test	ward_and_allport	89	44.0	0.853	to_hand	poldrack-single-stim	s647	False
0.1	427.847	0.891	428.738	0	PA_with_intermediate	test	ward_and_allport	71	44.0	0.891	to_board	poldrack-single-stim	s647	False
0.1	428.746	0.465	429.211	0	PA_with_intermediate	test	ward_and_allport	89	44.0	0.465	to_hand	poldrack-single-stim	s647	False
0.1	429.213	0.564	429.777	0	PA_with_intermediate	test	ward_and_allport	82	44.0	0.564	to_board	poldrack-single-stim	s647	False
0.1	429.786	0.436	430.222	0	PA_with_intermediate	test	ward_and_allport	71	44.0	0.436	to_hand	poldrack-single-stim	s647	False
0.1	430.223	0.417	430.64	0	PA_with_intermediate	test	ward_and_allport	82	44.0	0.417	to_board	poldrack-single-stim	s647	False
1.0	430.649	2.136	430.648	0	PA_with_intermediate	test	ward_and_allport	-1	44.0	n/a	feedback	poldrack-single-stim	s647	False
1.461	437.794	1.461	439.255	1	PA_with_intermediate	test	ward_and_allport	71	45.0	1.461	to_hand	poldrack-single-stim	s647	False
0.1	439.256	0.777	440.033	0	PA_with_intermediate	test	ward_and_allport	89	45.0	0.777	to_board	poldrack-single-stim	s647	False
0.1	440.042	0.441	440.483	0	PA_with_intermediate	test	ward_and_allport	71	45.0	0.441	to_hand	poldrack-single-stim	s647	False
0.1	440.484	0.388	440.872	0	PA_with_intermediate	test	ward_and_allport	82	45.0	0.388	to_board	poldrack-single-stim	s647	False
0.1	440.884	0.506	441.39	0	PA_with_intermediate	test	ward_and_allport	89	45.0	0.506	to_hand	poldrack-single-stim	s647	False
0.1	441.392	0.407	441.799	0	PA_with_intermediate	test	ward_and_allport	82	45.0	0.407	to_board	poldrack-single-stim	s647	False
1.0	441.813	2.0	441.812	0	PA_with_intermediate	test	ward_and_allport	-1	45.0	n/a	feedback	poldrack-single-stim	s647	False
0.94	443.824	0.94	444.764	1	PA_with_intermediate	test	ward_and_allport	89	46.0	0.94	to_hand	poldrack-single-stim	s647	False
0.1	444.765	2.077	446.842	0	PA_with_intermediate	test	ward_and_allport	82	46.0	2.077	to_board	poldrack-single-stim	s647	False
0.1	446.853	0.933	447.786	0	PA_with_intermediate	test	ward_and_allport	89	46.0	0.933	to_hand	poldrack-single-stim	s647	False
0.1	447.786	0.502	448.288	0	PA_with_intermediate	test	ward_and_allport	71	46.0	0.502	to_board	poldrack-single-stim	s647	False
0.1	448.298	0.444	448.742	0	PA_with_intermediate	test	ward_and_allport	82	46.0	0.444	to_hand	poldrack-single-stim	s647	False
0.1	448.744	0.288	449.032	0	PA_with_intermediate	test	ward_and_allport	71	46.0	0.288	to_board	poldrack-single-stim	s647	False
1.0	449.041	2.0	449.04	0	PA_with_intermediate	test	ward_and_allport	-1	46.0	n/a	feedback	poldrack-single-stim	s647	False
1.305	451.052	1.305	452.357	1	PA_without_intermediate	test	ward_and_allport	71	47.0	1.305	to_hand	poldrack-single-stim	s647	False
0.1	452.357	0.588	452.945	0	PA_without_intermediate	test	ward_and_allport	89	47.0	0.588	to_board	poldrack-single-stim	s647	False
0.1	452.955	0.358	453.313	0	PA_without_intermediate	test	ward_and_allport	71	47.0	0.358	to_hand	poldrack-single-stim	s647	False
0.1	453.314	0.317	453.631	0	PA_without_intermediate	test	ward_and_allport	89	47.0	0.317	to_board	poldrack-single-stim	s647	False
0.1	453.639	0.389	454.028	0	PA_without_intermediate	test	ward_and_allport	71	47.0	0.389	to_hand	poldrack-single-stim	s647	False
0.1	454.029	0.449	454.478	0	PA_without_intermediate	test	ward_and_allport	82	47.0	0.449	to_board	poldrack-single-stim	s647	False
1.0	454.488	2.408	454.487	0	PA_without_intermediate	test	ward_and_allport	-1	47.0	n/a	feedback	poldrack-single-stim	s647	False
