onset	duration	movement_onset	CTI	block_duration	correct	correct_response	cue	cue_switch	experiment_exp_id	key_press	response_time	stim_color	stim_number	switch_type	task	task_switch	trial_id	trial_type	worker_id	first_trial_of_block	junk
4.416	1.0	6.32	0.9	3.224	True	71.0	High-Low	stay	twobytwo	71.0	1.004	orange	1.0	cue_stay	magnitude	stay	stim	poldrack-single-stim	s648	1	False
8.545	1.0	10.389	0.9	2.408	True	89.0	Color	n/a	twobytwo	89.0	0.944	blue	4.0	task_switch	color	switch	stim	poldrack-single-stim	s648	0	False
11.859	1.0	13.824	0.9	2.816	True	71.0	High-Low	n/a	twobytwo	71.0	1.065	blue	3.0	task_switch	magnitude	switch	stim	poldrack-single-stim	s648	0	False
15.58	1.0	17.285	0.9	2.408	True	71.0	Color	n/a	twobytwo	71.0	0.805	orange	6.0	task_switch	color	switch	stim	poldrack-single-stim	s648	0	False
18.091	1.0	19.374	0.1	2.136	True	89.0	High-Low	n/a	twobytwo	89.0	1.183	blue	9.0	task_switch	magnitude	switch	stim	poldrack-single-stim	s648	0	False
21.132	1.0	22.788	0.9	2.136	True	71.0	High-Low	stay	twobytwo	71.0	0.756	blue	1.0	cue_stay	magnitude	stay	stim	poldrack-single-stim	s648	0	False
24.172	1.0	26.609	0.9	2.0	True	89.0	Magnitude	switch	twobytwo	89.0	1.537	orange	7.0	cue_switch	magnitude	stay	stim	poldrack-single-stim	s648	0	False
27.078	1.0	28.943	0.9	2.0	True	89.0	High-Low	switch	twobytwo	89.0	0.965	blue	8.0	cue_switch	magnitude	stay	stim	poldrack-single-stim	s648	0	False
29.982	1.0	31.576	0.9	2.272	True	89.0	Orange-Blue	n/a	twobytwo	89.0	0.694	blue	8.0	task_switch	color	switch	stim	poldrack-single-stim	s648	0	False
33.16	1.0	35.343	0.9	2.408	True	89.0	High-Low	n/a	twobytwo	89.0	1.283	blue	7.0	task_switch	magnitude	switch	stim	poldrack-single-stim	s648	0	False
36.473	1.0	38.24	0.9	2.0	True	71.0	Orange-Blue	n/a	twobytwo	71.0	0.867	orange	3.0	task_switch	color	switch	stim	poldrack-single-stim	s648	0	False
38.577	1.0	39.974	0.1	2.136	True	89.0	Color	switch	twobytwo	89.0	1.297	blue	2.0	cue_switch	color	stay	stim	poldrack-single-stim	s648	0	False
41.618	1.0	43.932	0.9	2.0	True	71.0	High-Low	n/a	twobytwo	71.0	1.414	orange	2.0	task_switch	magnitude	switch	stim	poldrack-single-stim	s648	0	False
43.723	1.0	44.861	0.1	2.408	True	89.0	Orange-Blue	n/a	twobytwo	89.0	1.038	blue	9.0	task_switch	color	switch	stim	poldrack-single-stim	s648	0	False
47.037	1.0	48.91	0.9	2.272	True	89.0	Color	switch	twobytwo	89.0	0.973	blue	8.0	cue_switch	color	stay	stim	poldrack-single-stim	s648	0	False
49.414	1.0	51.055	0.1	2.0	True	71.0	Magnitude	n/a	twobytwo	71.0	1.541	orange	2.0	task_switch	magnitude	switch	stim	poldrack-single-stim	s648	0	False
51.519	1.0	53.145	0.1	2.272	True	71.0	High-Low	switch	twobytwo	71.0	1.526	blue	4.0	cue_switch	magnitude	stay	stim	poldrack-single-stim	s648	0	False
54.695	1.0	56.187	0.9	2.0	True	89.0	Color	n/a	twobytwo	89.0	0.592	blue	6.0	task_switch	color	switch	stim	poldrack-single-stim	s648	0	False
56.799	1.0	58.48	0.1	2.0	True	71.0	Magnitude	n/a	twobytwo	71.0	1.581	blue	3.0	task_switch	magnitude	switch	stim	poldrack-single-stim	s648	0	False
58.904	1.0	59.91	0.1	2.272	True	89.0	Magnitude	stay	twobytwo	89.0	0.906	blue	8.0	cue_stay	magnitude	stay	stim	poldrack-single-stim	s648	0	False
62.08	1.0	63.534	0.9	2.136	True	89.0	Orange-Blue	n/a	twobytwo	89.0	0.554	blue	1.0	task_switch	color	switch	stim	poldrack-single-stim	s648	0	False
64.321	1.0	66.191	0.1	2.0	True	89.0	Magnitude	n/a	twobytwo	89.0	1.77	orange	8.0	task_switch	magnitude	switch	stim	poldrack-single-stim	s648	0	False
67.228	1.0	69.165	0.9	2.0	True	89.0	Magnitude	stay	twobytwo	89.0	1.037	blue	6.0	cue_stay	magnitude	stay	stim	poldrack-single-stim	s648	0	False
69.333	1.0	70.575	0.1	2.0	True	89.0	Orange-Blue	n/a	twobytwo	89.0	1.142	blue	3.0	task_switch	color	switch	stim	poldrack-single-stim	s648	0	False
72.238	1.0	73.801	0.9	2.0	True	71.0	Color	switch	twobytwo	71.0	0.663	orange	4.0	cue_switch	color	stay	stim	poldrack-single-stim	s648	0	False
74.343	1.0	76.06	0.1	2.0	True	89.0	Color	stay	twobytwo	89.0	1.617	blue	8.0	cue_stay	color	stay	stim	poldrack-single-stim	s648	0	False
77.248	1.0	79.47	0.9	2.136	True	89.0	High-Low	n/a	twobytwo	89.0	1.322	orange	7.0	task_switch	magnitude	switch	stim	poldrack-single-stim	s648	0	False
79.489	1.0	81.068	0.1	2.0	True	71.0	High-Low	stay	twobytwo	71.0	1.479	blue	2.0	cue_stay	magnitude	stay	stim	poldrack-single-stim	s648	0	False
82.394	1.0	84.062	0.9	2.0	True	89.0	Orange-Blue	n/a	twobytwo	89.0	0.768	blue	8.0	task_switch	color	switch	stim	poldrack-single-stim	s648	0	False
84.499	1.0	85.362	0.1	2.136	True	71.0	Color	switch	twobytwo	71.0	0.763	orange	7.0	cue_switch	color	stay	stim	poldrack-single-stim	s648	0	False
86.74	1.0	88.215	0.1	2.0	False	89.0	Orange-Blue	switch	twobytwo	71.0	1.375	blue	1.0	cue_switch	color	stay	stim	poldrack-single-stim	s648	0	False
88.846	1.0	88.845	0.1	2.136	False	71.0	High-Low	n/a	twobytwo	-1.0	n/a	blue	2.0	task_switch	magnitude	switch	stim	poldrack-single-stim	s648	0	False
91.887	1.0	93.61	0.9	2.68	True	89.0	Orange-Blue	n/a	twobytwo	89.0	0.823	blue	9.0	task_switch	color	switch	stim	poldrack-single-stim	s648	0	False
95.472	1.0	97.295	0.9	2.272	True	89.0	Orange-Blue	stay	twobytwo	89.0	0.923	blue	3.0	cue_stay	color	stay	stim	poldrack-single-stim	s648	0	False
97.849	1.0	99.487	0.1	2.136	True	89.0	Orange-Blue	stay	twobytwo	89.0	1.538	blue	2.0	cue_stay	color	stay	stim	poldrack-single-stim	s648	0	False
100.89	1.0	102.384	0.9	2.0	True	71.0	High-Low	n/a	twobytwo	71.0	0.594	blue	2.0	task_switch	magnitude	switch	stim	poldrack-single-stim	s648	0	False
103.795	1.0	105.722	0.9	2.136	True	89.0	Color	n/a	twobytwo	89.0	1.027	blue	6.0	task_switch	color	switch	stim	poldrack-single-stim	s648	0	False
106.036	1.0	107.253	0.1	2.68	True	89.0	Magnitude	n/a	twobytwo	89.0	1.117	blue	9.0	task_switch	magnitude	switch	stim	poldrack-single-stim	s648	0	False
108.822	1.0	110.201	0.1	2.272	True	71.0	Orange-Blue	n/a	twobytwo	71.0	1.279	orange	9.0	task_switch	color	switch	stim	poldrack-single-stim	s648	0	False
111.198	1.0	112.647	0.1	2.0	True	71.0	Color	switch	twobytwo	71.0	1.349	orange	4.0	cue_switch	color	stay	stim	poldrack-single-stim	s648	0	False
113.302	1.0	114.985	0.1	2.0	True	89.0	Magnitude	n/a	twobytwo	89.0	1.583	blue	8.0	task_switch	magnitude	switch	stim	poldrack-single-stim	s648	0	False
116.207	1.0	117.732	0.9	2.136	True	89.0	Magnitude	stay	twobytwo	89.0	0.625	orange	8.0	cue_stay	magnitude	stay	stim	poldrack-single-stim	s648	0	False
119.248	1.0	121.033	0.9	2.0	True	71.0	Magnitude	stay	twobytwo	71.0	0.885	blue	3.0	cue_stay	magnitude	stay	stim	poldrack-single-stim	s648	0	False
121.354	1.0	122.308	0.1	2.0	True	89.0	Magnitude	stay	twobytwo	89.0	0.854	blue	9.0	cue_stay	magnitude	stay	stim	poldrack-single-stim	s648	0	False
123.459	1.0	123.458	0.1	2.0	False	71.0	High-Low	switch	twobytwo	-1.0	n/a	orange	3.0	cue_switch	magnitude	stay	stim	poldrack-single-stim	s648	0	False
126.363	1.0	128.307	0.9	2.272	True	89.0	Orange-Blue	n/a	twobytwo	89.0	1.044	blue	1.0	task_switch	color	switch	stim	poldrack-single-stim	s648	0	False
128.741	1.0	130.211	0.1	2.408	True	89.0	High-Low	n/a	twobytwo	89.0	1.37	blue	7.0	task_switch	magnitude	switch	stim	poldrack-single-stim	s648	0	False
132.053	1.0	133.676	0.9	2.0	True	71.0	High-Low	stay	twobytwo	71.0	0.723	blue	3.0	cue_stay	magnitude	stay	stim	poldrack-single-stim	s648	0	False
134.157	1.0	135.497	0.1	2.0	True	71.0	High-Low	stay	twobytwo	71.0	1.24	blue	4.0	cue_stay	magnitude	stay	stim	poldrack-single-stim	s648	0	False
137.063	1.0	138.548	0.9	2.0	True	89.0	Orange-Blue	n/a	twobytwo	89.0	0.585	blue	6.0	task_switch	color	switch	stim	poldrack-single-stim	s648	0	False
139.167	1.0	140.755	0.1	2.272	True	89.0	High-Low	n/a	twobytwo	89.0	1.488	orange	8.0	task_switch	magnitude	switch	stim	poldrack-single-stim	s648	0	False
141.544	1.0	142.637	0.1	2.136	True	71.0	High-Low	stay	twobytwo	71.0	0.993	orange	3.0	cue_stay	magnitude	stay	stim	poldrack-single-stim	s648	0	False
143.785	1.0	145.165	0.1	2.0	True	89.0	Color	n/a	twobytwo	89.0	1.28	blue	6.0	task_switch	color	switch	stim	poldrack-single-stim	s648	0	False
145.89	1.0	147.279	0.1	2.544	True	71.0	Orange-Blue	switch	twobytwo	71.0	1.289	orange	4.0	cue_switch	color	stay	stim	poldrack-single-stim	s648	0	False
148.538	1.0	150.01	0.1	2.272	True	89.0	High-Low	n/a	twobytwo	89.0	1.372	blue	6.0	task_switch	magnitude	switch	stim	poldrack-single-stim	s648	0	False
151.716	1.0	153.224	0.9	2.272	True	89.0	High-Low	stay	twobytwo	89.0	0.608	blue	9.0	cue_stay	magnitude	stay	stim	poldrack-single-stim	s648	0	False
154.092	1.0	155.217	0.1	2.0	True	89.0	Magnitude	switch	twobytwo	89.0	1.025	orange	8.0	cue_switch	magnitude	stay	stim	poldrack-single-stim	s648	0	False
156.998	1.0	158.591	0.9	2.0	True	89.0	Magnitude	stay	twobytwo	89.0	0.693	blue	6.0	cue_stay	magnitude	stay	stim	poldrack-single-stim	s648	0	False
159.103	1.0	160.646	0.1	2.136	True	89.0	Orange-Blue	n/a	twobytwo	89.0	1.443	blue	6.0	task_switch	color	switch	stim	poldrack-single-stim	s648	0	False
161.345	1.0	162.416	0.1	2.0	True	89.0	Magnitude	n/a	twobytwo	89.0	0.971	orange	7.0	task_switch	magnitude	switch	stim	poldrack-single-stim	s648	0	False
164.25	1.0	166.103	0.9	2.136	True	89.0	High-Low	switch	twobytwo	89.0	0.953	orange	8.0	cue_switch	magnitude	stay	stim	poldrack-single-stim	s648	0	False
167.291	1.0	168.649	0.9	2.272	True	89.0	Orange-Blue	n/a	twobytwo	89.0	0.458	blue	8.0	task_switch	color	switch	stim	poldrack-single-stim	s648	0	False
169.669	1.0	170.749	0.1	2.136	True	89.0	Magnitude	n/a	twobytwo	89.0	0.98	orange	9.0	task_switch	magnitude	switch	stim	poldrack-single-stim	s648	0	False
171.911	1.0	172.857	0.1	2.272	True	89.0	Magnitude	stay	twobytwo	89.0	0.846	orange	6.0	cue_stay	magnitude	stay	stim	poldrack-single-stim	s648	0	False
174.289	1.0	175.304	0.1	2.0	True	71.0	Color	n/a	twobytwo	71.0	0.915	orange	9.0	task_switch	color	switch	stim	poldrack-single-stim	s648	0	False
177.193	1.0	178.545	0.9	2.816	True	71.0	Color	stay	twobytwo	71.0	0.452	orange	9.0	cue_stay	color	stay	stim	poldrack-single-stim	s648	0	False
180.115	1.0	181.909	0.1	2.408	True	71.0	Orange-Blue	switch	twobytwo	71.0	1.694	orange	2.0	cue_switch	color	stay	stim	poldrack-single-stim	s648	0	False
183.428	1.0	184.851	0.9	2.0	True	71.0	Orange-Blue	stay	twobytwo	71.0	0.523	orange	3.0	cue_stay	color	stay	stim	poldrack-single-stim	s648	0	False
185.533	1.0	186.463	0.1	2.544	True	71.0	Orange-Blue	stay	twobytwo	71.0	0.83	orange	2.0	cue_stay	color	stay	stim	poldrack-single-stim	s648	0	False
188.182	1.0	189.267	0.1	2.136	True	71.0	High-Low	n/a	twobytwo	71.0	0.985	orange	1.0	task_switch	magnitude	switch	stim	poldrack-single-stim	s648	0	False
191.223	1.0	192.548	0.9	2.0	True	89.0	Color	n/a	twobytwo	89.0	0.425	blue	4.0	task_switch	color	switch	stim	poldrack-single-stim	s648	0	False
194.128	1.0	196.405	0.9	2.0	True	71.0	Color	stay	twobytwo	71.0	1.377	orange	9.0	cue_stay	color	stay	stim	poldrack-single-stim	s648	0	False
197.033	1.0	198.496	0.9	2.136	True	71.0	Orange-Blue	switch	twobytwo	71.0	0.563	orange	1.0	cue_switch	color	stay	stim	poldrack-single-stim	s648	0	False
199.275	1.0	200.567	0.1	2.136	True	71.0	Orange-Blue	stay	twobytwo	71.0	1.192	orange	8.0	cue_stay	color	stay	stim	poldrack-single-stim	s648	0	False
202.315	1.0	204.766	0.9	2.272	True	71.0	High-Low	n/a	twobytwo	71.0	1.551	blue	3.0	task_switch	magnitude	switch	stim	poldrack-single-stim	s648	0	False
205.493	1.0	206.95	0.9	3.224	True	71.0	Magnitude	switch	twobytwo	71.0	0.557	blue	3.0	cue_switch	magnitude	stay	stim	poldrack-single-stim	s648	0	False
209.622	1.0	211.755	0.9	2.0	True	89.0	High-Low	switch	twobytwo	89.0	1.233	blue	6.0	cue_switch	magnitude	stay	stim	poldrack-single-stim	s648	0	False
212.527	1.0	214.141	0.9	2.0	True	89.0	Color	n/a	twobytwo	89.0	0.714	blue	7.0	task_switch	color	switch	stim	poldrack-single-stim	s648	0	False
214.632	1.0	216.224	0.1	2.272	True	89.0	High-Low	n/a	twobytwo	89.0	1.492	orange	9.0	task_switch	magnitude	switch	stim	poldrack-single-stim	s648	0	False
217.009	1.0	218.173	0.1	2.136	True	89.0	Color	n/a	twobytwo	89.0	1.064	blue	7.0	task_switch	color	switch	stim	poldrack-single-stim	s648	0	False
233.562	1.0	235.285	0.9	2.0	True	71.0	Magnitude	stay	twobytwo	71.0	0.823	orange	1.0	cue_stay	magnitude	stay	stim	poldrack-single-stim	s648	1	False
236.466	1.0	238.2	0.9	2.0	True	89.0	Color	n/a	twobytwo	89.0	0.834	blue	4.0	task_switch	color	switch	stim	poldrack-single-stim	s648	0	False
239.372	1.0	241.23	0.9	2.0	True	71.0	High-Low	n/a	twobytwo	71.0	0.958	blue	3.0	task_switch	magnitude	switch	stim	poldrack-single-stim	s648	0	False
242.278	1.0	243.931	0.9	2.68	True	71.0	Orange-Blue	n/a	twobytwo	71.0	0.753	orange	6.0	task_switch	color	switch	stim	poldrack-single-stim	s648	0	False
245.063	1.0	246.247	0.1	2.0	True	89.0	Magnitude	n/a	twobytwo	89.0	1.084	blue	9.0	task_switch	magnitude	switch	stim	poldrack-single-stim	s648	0	False
247.968	1.0	249.982	0.9	2.272	True	71.0	Magnitude	stay	twobytwo	71.0	1.114	blue	1.0	cue_stay	magnitude	stay	stim	poldrack-single-stim	s648	0	False
251.145	1.0	252.965	0.9	2.0	True	89.0	High-Low	switch	twobytwo	89.0	0.92	orange	7.0	cue_switch	magnitude	stay	stim	poldrack-single-stim	s648	0	False
254.051	1.0	255.967	0.9	2.272	True	89.0	Magnitude	switch	twobytwo	89.0	1.016	blue	8.0	cue_switch	magnitude	stay	stim	poldrack-single-stim	s648	0	False
257.227	1.0	259.014	0.9	2.952	True	89.0	Color	n/a	twobytwo	89.0	0.887	blue	8.0	task_switch	color	switch	stim	poldrack-single-stim	s648	0	False
261.085	1.0	262.851	0.9	2.0	True	89.0	Magnitude	n/a	twobytwo	89.0	0.866	blue	7.0	task_switch	magnitude	switch	stim	poldrack-single-stim	s648	0	False
263.99	1.0	265.313	0.9	2.0	True	71.0	Color	n/a	twobytwo	71.0	0.423	orange	3.0	task_switch	color	switch	stim	poldrack-single-stim	s648	0	False
266.096	1.0	267.362	0.1	2.0	True	89.0	Orange-Blue	switch	twobytwo	89.0	1.166	blue	2.0	cue_switch	color	stay	stim	poldrack-single-stim	s648	0	False
269.001	1.0	270.856	0.9	2.0	True	71.0	High-Low	n/a	twobytwo	71.0	0.955	orange	2.0	task_switch	magnitude	switch	stim	poldrack-single-stim	s648	0	False
271.106	1.0	272.832	0.1	2.136	True	89.0	Orange-Blue	n/a	twobytwo	89.0	1.626	blue	9.0	task_switch	color	switch	stim	poldrack-single-stim	s648	0	False
274.148	1.0	276.387	0.9	2.0	True	89.0	Color	switch	twobytwo	89.0	1.339	blue	8.0	cue_switch	color	stay	stim	poldrack-single-stim	s648	0	False
276.251	1.0	277.128	0.1	2.0	True	71.0	Magnitude	n/a	twobytwo	71.0	0.777	orange	2.0	task_switch	magnitude	switch	stim	poldrack-single-stim	s648	0	False
278.357	1.0	279.31	0.1	2.0	True	71.0	High-Low	switch	twobytwo	71.0	0.853	blue	4.0	cue_switch	magnitude	stay	stim	poldrack-single-stim	s648	0	False
281.262	1.0	282.558	0.9	2.272	True	89.0	Color	n/a	twobytwo	89.0	0.396	blue	6.0	task_switch	color	switch	stim	poldrack-single-stim	s648	0	False
283.64	1.0	283.639	0.1	2.136	False	71.0	High-Low	n/a	twobytwo	-1.0	n/a	blue	3.0	task_switch	magnitude	switch	stim	poldrack-single-stim	s648	0	False
285.881	1.0	287.29	0.1	2.0	True	89.0	High-Low	stay	twobytwo	89.0	1.309	blue	8.0	cue_stay	magnitude	stay	stim	poldrack-single-stim	s648	0	False
288.786	1.0	290.778	0.9	2.136	True	89.0	Color	n/a	twobytwo	89.0	1.092	blue	1.0	task_switch	color	switch	stim	poldrack-single-stim	s648	0	False
291.027	1.0	292.453	0.1	2.816	False	89.0	Magnitude	n/a	twobytwo	71.0	1.326	orange	8.0	task_switch	magnitude	switch	stim	poldrack-single-stim	s648	0	False
294.747	1.0	297.178	0.9	2.408	True	89.0	Magnitude	stay	twobytwo	89.0	1.531	blue	6.0	cue_stay	magnitude	stay	stim	poldrack-single-stim	s648	0	False
297.261	1.0	299.035	0.1	2.0	True	89.0	Color	n/a	twobytwo	89.0	1.674	blue	3.0	task_switch	color	switch	stim	poldrack-single-stim	s648	0	False
300.165	1.0	301.701	0.9	2.136	True	71.0	Orange-Blue	switch	twobytwo	71.0	0.636	orange	4.0	cue_switch	color	stay	stim	poldrack-single-stim	s648	0	False
302.407	1.0	303.798	0.1	2.136	True	89.0	Orange-Blue	stay	twobytwo	89.0	1.291	blue	8.0	cue_stay	color	stay	stim	poldrack-single-stim	s648	0	False
305.448	1.0	307.462	0.9	2.136	True	89.0	High-Low	n/a	twobytwo	89.0	1.114	orange	7.0	task_switch	magnitude	switch	stim	poldrack-single-stim	s648	0	False
307.689	1.0	308.813	0.1	2.544	True	71.0	High-Low	stay	twobytwo	71.0	1.024	blue	2.0	cue_stay	magnitude	stay	stim	poldrack-single-stim	s648	0	False
311.138	1.0	312.952	0.9	2.136	True	89.0	Orange-Blue	n/a	twobytwo	89.0	0.914	blue	8.0	task_switch	color	switch	stim	poldrack-single-stim	s648	0	False
313.379	1.0	314.612	0.1	2.0	False	71.0	Color	switch	twobytwo	89.0	1.133	orange	7.0	cue_switch	color	stay	stim	poldrack-single-stim	s648	0	False
315.484	1.0	316.813	0.1	2.0	True	89.0	Orange-Blue	switch	twobytwo	89.0	1.229	blue	1.0	cue_switch	color	stay	stim	poldrack-single-stim	s648	0	False
317.589	1.0	318.644	0.1	2.0	True	71.0	Magnitude	n/a	twobytwo	71.0	0.955	blue	2.0	task_switch	magnitude	switch	stim	poldrack-single-stim	s648	0	False
320.494	1.0	322.281	0.9	2.0	True	89.0	Color	n/a	twobytwo	89.0	0.887	blue	9.0	task_switch	color	switch	stim	poldrack-single-stim	s648	0	False
323.399	1.0	324.911	0.9	2.136	True	89.0	Color	stay	twobytwo	89.0	0.612	blue	3.0	cue_stay	color	stay	stim	poldrack-single-stim	s648	0	False
325.641	1.0	326.371	0.1	2.0	True	89.0	Color	stay	twobytwo	89.0	0.63	blue	2.0	cue_stay	color	stay	stim	poldrack-single-stim	s648	0	False
328.546	1.0	330.138	0.9	2.0	True	71.0	Magnitude	n/a	twobytwo	71.0	0.692	blue	2.0	task_switch	magnitude	switch	stim	poldrack-single-stim	s648	0	False
331.451	1.0	333.82	0.9	2.0	True	89.0	Orange-Blue	n/a	twobytwo	89.0	1.469	blue	6.0	task_switch	color	switch	stim	poldrack-single-stim	s648	0	False
333.557	1.0	334.625	0.1	2.136	True	89.0	Magnitude	n/a	twobytwo	89.0	0.968	blue	9.0	task_switch	magnitude	switch	stim	poldrack-single-stim	s648	0	False
335.798	1.0	337.713	0.1	2.136	True	71.0	Orange-Blue	n/a	twobytwo	71.0	1.815	orange	9.0	task_switch	color	switch	stim	poldrack-single-stim	s648	0	False
338.039	1.0	339.018	0.1	2.136	True	71.0	Color	switch	twobytwo	71.0	0.879	orange	4.0	cue_switch	color	stay	stim	poldrack-single-stim	s648	0	False
340.28	1.0	341.3	0.1	2.136	True	89.0	Magnitude	n/a	twobytwo	89.0	0.92	blue	8.0	task_switch	magnitude	switch	stim	poldrack-single-stim	s648	0	False
343.322	1.0	345.744	0.9	2.68	True	89.0	Magnitude	stay	twobytwo	89.0	1.522	orange	8.0	cue_stay	magnitude	stay	stim	poldrack-single-stim	s648	0	False
346.908	1.0	348.848	0.9	2.544	True	71.0	Magnitude	stay	twobytwo	71.0	1.04	blue	3.0	cue_stay	magnitude	stay	stim	poldrack-single-stim	s648	0	False
349.558	1.0	350.526	0.1	2.272	True	89.0	Magnitude	stay	twobytwo	89.0	0.868	blue	9.0	cue_stay	magnitude	stay	stim	poldrack-single-stim	s648	0	False
351.936	1.0	353.619	0.1	2.272	True	71.0	High-Low	switch	twobytwo	71.0	1.583	orange	3.0	cue_switch	magnitude	stay	stim	poldrack-single-stim	s648	0	False
355.113	1.0	356.644	0.9	2.408	True	89.0	Color	n/a	twobytwo	89.0	0.631	blue	1.0	task_switch	color	switch	stim	poldrack-single-stim	s648	0	False
357.627	1.0	359.346	0.1	2.136	True	89.0	High-Low	n/a	twobytwo	89.0	1.619	blue	7.0	task_switch	magnitude	switch	stim	poldrack-single-stim	s648	0	False
360.667	1.0	362.379	0.9	2.272	True	71.0	High-Low	stay	twobytwo	71.0	0.812	blue	3.0	cue_stay	magnitude	stay	stim	poldrack-single-stim	s648	0	False
363.045	1.0	364.11	0.1	2.0	True	71.0	High-Low	stay	twobytwo	71.0	0.965	blue	4.0	cue_stay	magnitude	stay	stim	poldrack-single-stim	s648	0	False
365.95	1.0	367.937	0.9	2.136	True	89.0	Orange-Blue	n/a	twobytwo	89.0	1.087	blue	6.0	task_switch	color	switch	stim	poldrack-single-stim	s648	0	False
368.192	1.0	369.232	0.1	2.272	True	89.0	Magnitude	n/a	twobytwo	89.0	0.94	orange	8.0	task_switch	magnitude	switch	stim	poldrack-single-stim	s648	0	False
370.568	1.0	371.58	0.1	2.0	True	71.0	Magnitude	stay	twobytwo	71.0	0.912	orange	3.0	cue_stay	magnitude	stay	stim	poldrack-single-stim	s648	0	False
372.674	1.0	373.458	0.1	2.68	True	89.0	Color	n/a	twobytwo	89.0	0.684	blue	6.0	task_switch	color	switch	stim	poldrack-single-stim	s648	0	False
375.459	1.0	377.193	0.1	2.0	True	71.0	Orange-Blue	switch	twobytwo	71.0	1.634	orange	4.0	cue_switch	color	stay	stim	poldrack-single-stim	s648	0	False
377.564	1.0	378.571	0.1	2.0	True	89.0	Magnitude	n/a	twobytwo	89.0	0.907	blue	6.0	task_switch	magnitude	switch	stim	poldrack-single-stim	s648	0	False
380.468	1.0	382.036	0.9	2.0	True	89.0	Magnitude	stay	twobytwo	89.0	0.668	blue	9.0	cue_stay	magnitude	stay	stim	poldrack-single-stim	s648	0	False
382.573	1.0	383.495	0.1	2.272	True	89.0	High-Low	switch	twobytwo	89.0	0.822	orange	8.0	cue_switch	magnitude	stay	stim	poldrack-single-stim	s648	0	False
385.751	1.0	387.26	0.9	2.0	True	89.0	High-Low	stay	twobytwo	89.0	0.609	blue	6.0	cue_stay	magnitude	stay	stim	poldrack-single-stim	s648	0	False
387.856	1.0	388.547	0.1	2.0	True	89.0	Orange-Blue	n/a	twobytwo	89.0	0.591	blue	6.0	task_switch	color	switch	stim	poldrack-single-stim	s648	0	False
389.961	1.0	390.687	0.1	2.0	True	89.0	High-Low	n/a	twobytwo	89.0	0.626	orange	7.0	task_switch	magnitude	switch	stim	poldrack-single-stim	s648	0	False
392.867	1.0	394.339	0.9	2.68	True	89.0	Magnitude	switch	twobytwo	89.0	0.572	orange	8.0	cue_switch	magnitude	stay	stim	poldrack-single-stim	s648	0	False
396.452	1.0	397.93	0.9	2.0	True	89.0	Color	n/a	twobytwo	89.0	0.578	blue	8.0	task_switch	color	switch	stim	poldrack-single-stim	s648	0	False
398.558	1.0	399.688	0.1	2.136	True	89.0	Magnitude	n/a	twobytwo	89.0	1.03	orange	9.0	task_switch	magnitude	switch	stim	poldrack-single-stim	s648	0	False
400.799	1.0	401.985	0.1	2.408	True	89.0	Magnitude	stay	twobytwo	89.0	1.086	orange	6.0	cue_stay	magnitude	stay	stim	poldrack-single-stim	s648	0	False
403.314	1.0	404.148	0.1	2.136	False	71.0	Color	n/a	twobytwo	89.0	0.734	orange	9.0	task_switch	color	switch	stim	poldrack-single-stim	s648	0	False
406.354	1.0	407.709	0.9	2.0	True	71.0	Color	stay	twobytwo	71.0	0.455	orange	9.0	cue_stay	color	stay	stim	poldrack-single-stim	s648	0	False
408.459	1.0	409.913	0.1	2.0	True	71.0	Orange-Blue	switch	twobytwo	71.0	1.354	orange	2.0	cue_switch	color	stay	stim	poldrack-single-stim	s648	0	False
411.364	1.0	412.854	0.9	2.544	True	71.0	Orange-Blue	stay	twobytwo	71.0	0.59	orange	3.0	cue_stay	color	stay	stim	poldrack-single-stim	s648	0	False
414.013	1.0	414.797	0.1	2.136	True	71.0	Orange-Blue	stay	twobytwo	71.0	0.684	orange	2.0	cue_stay	color	stay	stim	poldrack-single-stim	s648	0	False
416.254	1.0	417.444	0.1	2.544	True	71.0	High-Low	n/a	twobytwo	71.0	1.09	orange	1.0	task_switch	magnitude	switch	stim	poldrack-single-stim	s648	0	False
419.703	1.0	421.715	0.9	2.68	True	89.0	Orange-Blue	n/a	twobytwo	89.0	1.112	blue	4.0	task_switch	color	switch	stim	poldrack-single-stim	s648	0	False
423.289	1.0	424.869	0.9	2.0	True	71.0	Orange-Blue	stay	twobytwo	71.0	0.68	orange	9.0	cue_stay	color	stay	stim	poldrack-single-stim	s648	0	False
426.193	1.0	428.273	0.9	2.272	True	71.0	Color	switch	twobytwo	71.0	1.18	orange	1.0	cue_switch	color	stay	stim	poldrack-single-stim	s648	0	False
428.571	1.0	430.151	0.1	3.088	True	71.0	Color	stay	twobytwo	71.0	1.48	orange	8.0	cue_stay	color	stay	stim	poldrack-single-stim	s648	0	False
432.564	1.0	434.387	0.9	2.0	True	71.0	High-Low	n/a	twobytwo	71.0	0.923	blue	3.0	task_switch	magnitude	switch	stim	poldrack-single-stim	s648	0	False
435.47	1.0	437.418	0.9	2.136	True	71.0	Magnitude	switch	twobytwo	71.0	1.048	blue	3.0	cue_switch	magnitude	stay	stim	poldrack-single-stim	s648	0	False
438.51	1.0	439.952	0.9	2.136	True	89.0	High-Low	switch	twobytwo	89.0	0.542	blue	6.0	cue_switch	magnitude	stay	stim	poldrack-single-stim	s648	0	False
441.552	1.0	442.968	0.9	2.0	True	89.0	Orange-Blue	n/a	twobytwo	89.0	0.516	blue	7.0	task_switch	color	switch	stim	poldrack-single-stim	s648	0	False
443.657	1.0	444.798	0.1	2.272	True	89.0	High-Low	n/a	twobytwo	89.0	1.041	orange	9.0	task_switch	magnitude	switch	stim	poldrack-single-stim	s648	0	False
446.034	1.0	447.823	0.1	2.0	True	89.0	Color	n/a	twobytwo	89.0	1.689	blue	7.0	task_switch	color	switch	stim	poldrack-single-stim	s648	0	False
462.45	1.0	464.085	0.9	2.136	True	71.0	Magnitude	stay	twobytwo	71.0	0.735	orange	1.0	cue_stay	magnitude	stay	stim	poldrack-single-stim	s648	1	False
465.491	1.0	467.043	0.9	2.136	True	89.0	Color	n/a	twobytwo	89.0	0.652	blue	4.0	task_switch	color	switch	stim	poldrack-single-stim	s648	0	False
468.532	1.0	470.207	0.9	2.544	True	71.0	High-Low	n/a	twobytwo	71.0	0.775	blue	3.0	task_switch	magnitude	switch	stim	poldrack-single-stim	s648	0	False
471.983	1.0	474.068	0.9	2.0	True	71.0	Color	n/a	twobytwo	71.0	1.185	orange	6.0	task_switch	color	switch	stim	poldrack-single-stim	s648	0	False
474.087	1.0	475.004	0.1	2.136	True	89.0	High-Low	n/a	twobytwo	89.0	0.817	blue	9.0	task_switch	magnitude	switch	stim	poldrack-single-stim	s648	0	False
477.127	1.0	478.87	0.9	2.136	True	71.0	High-Low	stay	twobytwo	71.0	0.843	blue	1.0	cue_stay	magnitude	stay	stim	poldrack-single-stim	s648	0	False
480.167	1.0	482.383	0.9	2.136	True	89.0	Magnitude	switch	twobytwo	89.0	1.316	orange	7.0	cue_switch	magnitude	stay	stim	poldrack-single-stim	s648	0	False
483.208	1.0	484.941	0.9	2.0	True	89.0	High-Low	switch	twobytwo	89.0	0.833	blue	8.0	cue_switch	magnitude	stay	stim	poldrack-single-stim	s648	0	False
486.114	1.0	488.05	0.9	2.136	True	89.0	Orange-Blue	n/a	twobytwo	89.0	1.036	blue	8.0	task_switch	color	switch	stim	poldrack-single-stim	s648	0	False
489.155	1.0	491.096	0.9	2.0	True	89.0	Magnitude	n/a	twobytwo	89.0	1.041	blue	7.0	task_switch	magnitude	switch	stim	poldrack-single-stim	s648	0	False
492.06	1.0	493.95	0.9	2.136	True	71.0	Orange-Blue	n/a	twobytwo	71.0	0.99	orange	3.0	task_switch	color	switch	stim	poldrack-single-stim	s648	0	False
494.302	1.0	496.148	0.1	2.816	False	89.0	Color	switch	twobytwo	71.0	1.746	blue	2.0	cue_switch	color	stay	stim	poldrack-single-stim	s648	0	False
498.023	1.0	499.862	0.9	2.136	True	71.0	Magnitude	n/a	twobytwo	71.0	0.939	orange	2.0	task_switch	magnitude	switch	stim	poldrack-single-stim	s648	0	False
500.264	1.0	501.919	0.1	2.0	True	89.0	Orange-Blue	n/a	twobytwo	89.0	1.555	blue	9.0	task_switch	color	switch	stim	poldrack-single-stim	s648	0	False
503.169	1.0	505.35	0.9	2.0	True	89.0	Color	switch	twobytwo	89.0	1.281	blue	8.0	cue_switch	color	stay	stim	poldrack-single-stim	s648	0	False
505.275	1.0	506.333	0.1	2.272	True	71.0	High-Low	n/a	twobytwo	71.0	0.958	orange	2.0	task_switch	magnitude	switch	stim	poldrack-single-stim	s648	0	False
507.652	1.0	508.839	0.1	2.0	True	71.0	Magnitude	switch	twobytwo	71.0	1.087	blue	4.0	cue_switch	magnitude	stay	stim	poldrack-single-stim	s648	0	False
510.557	1.0	512.257	0.9	2.0	True	89.0	Orange-Blue	n/a	twobytwo	89.0	0.8	blue	6.0	task_switch	color	switch	stim	poldrack-single-stim	s648	0	False
512.662	1.0	513.649	0.1	2.0	True	71.0	Magnitude	n/a	twobytwo	71.0	0.887	blue	3.0	task_switch	magnitude	switch	stim	poldrack-single-stim	s648	0	False
514.768	1.0	515.635	0.1	2.408	True	89.0	Magnitude	stay	twobytwo	89.0	0.767	blue	8.0	cue_stay	magnitude	stay	stim	poldrack-single-stim	s648	0	False
518.081	1.0	520.255	0.9	2.272	True	89.0	Orange-Blue	n/a	twobytwo	89.0	1.274	blue	1.0	task_switch	color	switch	stim	poldrack-single-stim	s648	0	False
520.458	1.0	521.779	0.1	2.136	False	89.0	High-Low	n/a	twobytwo	71.0	1.221	orange	8.0	task_switch	magnitude	switch	stim	poldrack-single-stim	s648	0	False
523.499	1.0	525.495	0.9	2.0	True	89.0	High-Low	stay	twobytwo	89.0	1.096	blue	6.0	cue_stay	magnitude	stay	stim	poldrack-single-stim	s648	0	False
525.605	1.0	526.825	0.1	2.0	True	89.0	Orange-Blue	n/a	twobytwo	89.0	1.12	blue	3.0	task_switch	color	switch	stim	poldrack-single-stim	s648	0	False
528.51	1.0	530.114	0.9	2.136	True	71.0	Color	switch	twobytwo	71.0	0.704	orange	4.0	cue_switch	color	stay	stim	poldrack-single-stim	s648	0	False
530.752	1.0	532.068	0.1	2.0	True	89.0	Color	stay	twobytwo	89.0	1.216	blue	8.0	cue_stay	color	stay	stim	poldrack-single-stim	s648	0	False
533.657	1.0	535.368	0.9	2.136	True	89.0	High-Low	n/a	twobytwo	89.0	0.811	orange	7.0	task_switch	magnitude	switch	stim	poldrack-single-stim	s648	0	False
535.899	1.0	537.303	0.1	2.408	True	71.0	High-Low	stay	twobytwo	71.0	1.304	blue	2.0	cue_stay	magnitude	stay	stim	poldrack-single-stim	s648	0	False
539.213	1.0	540.742	0.9	2.136	True	89.0	Color	n/a	twobytwo	89.0	0.629	blue	8.0	task_switch	color	switch	stim	poldrack-single-stim	s648	0	False
541.454	1.0	542.604	0.1	2.0	True	71.0	Orange-Blue	switch	twobytwo	71.0	1.05	orange	7.0	cue_switch	color	stay	stim	poldrack-single-stim	s648	0	False
543.559	1.0	544.873	0.1	2.136	True	89.0	Color	switch	twobytwo	89.0	1.214	blue	1.0	cue_switch	color	stay	stim	poldrack-single-stim	s648	0	False
545.8	1.0	546.977	0.1	2.272	True	71.0	Magnitude	n/a	twobytwo	71.0	1.077	blue	2.0	task_switch	magnitude	switch	stim	poldrack-single-stim	s648	0	False
548.978	1.0	550.507	0.9	2.0	True	89.0	Orange-Blue	n/a	twobytwo	89.0	0.629	blue	9.0	task_switch	color	switch	stim	poldrack-single-stim	s648	0	False
551.882	1.0	553.804	0.9	2.408	True	89.0	Orange-Blue	stay	twobytwo	89.0	1.022	blue	3.0	cue_stay	color	stay	stim	poldrack-single-stim	s648	0	False
554.395	1.0	555.166	0.1	2.0	True	89.0	Orange-Blue	stay	twobytwo	89.0	0.671	blue	2.0	cue_stay	color	stay	stim	poldrack-single-stim	s648	0	False
557.3	1.0	559.462	0.9	2.136	True	71.0	High-Low	n/a	twobytwo	71.0	1.262	blue	2.0	task_switch	magnitude	switch	stim	poldrack-single-stim	s648	0	False
560.341	1.0	561.789	0.9	2.408	True	89.0	Orange-Blue	n/a	twobytwo	89.0	0.548	blue	6.0	task_switch	color	switch	stim	poldrack-single-stim	s648	0	False
562.854	1.0	564.388	0.1	2.136	True	89.0	Magnitude	n/a	twobytwo	89.0	1.434	blue	9.0	task_switch	magnitude	switch	stim	poldrack-single-stim	s648	0	False
565.096	1.0	566.067	0.1	2.408	True	71.0	Color	n/a	twobytwo	71.0	0.871	orange	9.0	task_switch	color	switch	stim	poldrack-single-stim	s648	0	False
567.61	1.0	569.105	0.1	2.136	True	71.0	Orange-Blue	switch	twobytwo	71.0	1.395	orange	4.0	cue_switch	color	stay	stim	poldrack-single-stim	s648	0	False
569.852	1.0	570.725	0.1	2.0	True	89.0	Magnitude	n/a	twobytwo	89.0	0.773	blue	8.0	task_switch	magnitude	switch	stim	poldrack-single-stim	s648	0	False
572.758	1.0	574.592	0.9	2.272	True	89.0	Magnitude	stay	twobytwo	89.0	0.934	orange	8.0	cue_stay	magnitude	stay	stim	poldrack-single-stim	s648	0	False
575.935	1.0	577.581	0.9	2.0	True	71.0	Magnitude	stay	twobytwo	71.0	0.746	blue	3.0	cue_stay	magnitude	stay	stim	poldrack-single-stim	s648	0	False
578.039	1.0	579.861	0.1	2.272	True	89.0	Magnitude	stay	twobytwo	89.0	1.722	blue	9.0	cue_stay	magnitude	stay	stim	poldrack-single-stim	s648	0	False
580.418	1.0	581.28	0.1	2.272	True	71.0	High-Low	switch	twobytwo	71.0	0.762	orange	3.0	cue_switch	magnitude	stay	stim	poldrack-single-stim	s648	0	False
583.595	1.0	584.985	0.9	2.952	True	89.0	Color	n/a	twobytwo	89.0	0.49	blue	1.0	task_switch	color	switch	stim	poldrack-single-stim	s648	0	False
586.653	1.0	587.812	0.1	2.68	True	89.0	High-Low	n/a	twobytwo	89.0	1.059	blue	7.0	task_switch	magnitude	switch	stim	poldrack-single-stim	s648	0	False
590.239	1.0	591.676	0.9	2.136	False	71.0	High-Low	stay	twobytwo	89.0	0.537	blue	3.0	cue_stay	magnitude	stay	stim	poldrack-single-stim	s648	0	False
592.48	1.0	593.666	0.1	2.272	True	71.0	High-Low	stay	twobytwo	71.0	1.086	blue	4.0	cue_stay	magnitude	stay	stim	poldrack-single-stim	s648	0	False
595.657	1.0	597.222	0.9	2.272	True	89.0	Color	n/a	twobytwo	89.0	0.665	blue	6.0	task_switch	color	switch	stim	poldrack-single-stim	s648	0	False
598.035	1.0	599.22	0.1	2.136	True	89.0	Magnitude	n/a	twobytwo	89.0	1.085	orange	8.0	task_switch	magnitude	switch	stim	poldrack-single-stim	s648	0	False
600.276	1.0	601.696	0.1	2.408	True	71.0	Magnitude	stay	twobytwo	71.0	1.32	orange	3.0	cue_stay	magnitude	stay	stim	poldrack-single-stim	s648	0	False
602.789	1.0	603.977	0.1	2.136	True	89.0	Color	n/a	twobytwo	89.0	1.088	blue	6.0	task_switch	color	switch	stim	poldrack-single-stim	s648	0	False
605.03	1.0	606.455	0.1	2.136	False	71.0	Orange-Blue	switch	twobytwo	89.0	1.325	orange	4.0	cue_switch	color	stay	stim	poldrack-single-stim	s648	0	False
607.271	1.0	608.879	0.1	2.0	True	89.0	High-Low	n/a	twobytwo	89.0	1.508	blue	6.0	task_switch	magnitude	switch	stim	poldrack-single-stim	s648	0	False
610.177	1.0	611.637	0.9	2.0	True	89.0	High-Low	stay	twobytwo	89.0	0.56	blue	9.0	cue_stay	magnitude	stay	stim	poldrack-single-stim	s648	0	False
612.282	1.0	613.293	0.1	2.0	True	89.0	Magnitude	switch	twobytwo	89.0	0.911	orange	8.0	cue_switch	magnitude	stay	stim	poldrack-single-stim	s648	0	False
615.187	1.0	616.643	0.9	2.0	True	89.0	Magnitude	stay	twobytwo	89.0	0.556	blue	6.0	cue_stay	magnitude	stay	stim	poldrack-single-stim	s648	0	False
617.291	1.0	618.903	0.1	2.0	True	89.0	Orange-Blue	n/a	twobytwo	89.0	1.512	blue	6.0	task_switch	color	switch	stim	poldrack-single-stim	s648	0	False
619.397	1.0	620.315	0.1	2.272	True	89.0	Magnitude	n/a	twobytwo	89.0	0.818	orange	7.0	task_switch	magnitude	switch	stim	poldrack-single-stim	s648	0	False
622.573	1.0	623.941	0.9	2.408	True	89.0	High-Low	switch	twobytwo	89.0	0.468	orange	8.0	cue_switch	magnitude	stay	stim	poldrack-single-stim	s648	0	False
625.886	1.0	627.331	0.9	2.0	True	89.0	Color	n/a	twobytwo	89.0	0.545	blue	8.0	task_switch	color	switch	stim	poldrack-single-stim	s648	0	False
627.991	1.0	628.889	0.1	2.136	True	89.0	Magnitude	n/a	twobytwo	89.0	0.798	orange	9.0	task_switch	magnitude	switch	stim	poldrack-single-stim	s648	0	False
630.232	1.0	631.132	0.1	2.0	True	89.0	Magnitude	stay	twobytwo	89.0	0.8	orange	6.0	cue_stay	magnitude	stay	stim	poldrack-single-stim	s648	0	False
632.338	1.0	633.232	0.1	2.136	False	71.0	Orange-Blue	n/a	twobytwo	89.0	0.794	orange	9.0	task_switch	color	switch	stim	poldrack-single-stim	s648	0	False
635.379	1.0	636.877	0.9	2.544	False	71.0	Orange-Blue	stay	twobytwo	89.0	0.598	orange	9.0	cue_stay	color	stay	stim	poldrack-single-stim	s648	0	False
638.031	1.0	639.375	0.1	2.68	True	71.0	Color	switch	twobytwo	71.0	1.244	orange	2.0	cue_switch	color	stay	stim	poldrack-single-stim	s648	0	False
641.617	1.0	643.614	0.9	3.088	True	71.0	Color	stay	twobytwo	71.0	1.097	orange	3.0	cue_stay	color	stay	stim	poldrack-single-stim	s648	0	False
644.809	1.0	645.73	0.1	2.136	True	71.0	Color	stay	twobytwo	71.0	0.821	orange	2.0	cue_stay	color	stay	stim	poldrack-single-stim	s648	0	False
647.05	1.0	648.403	0.1	2.544	True	71.0	Magnitude	n/a	twobytwo	71.0	1.253	orange	1.0	task_switch	magnitude	switch	stim	poldrack-single-stim	s648	0	False
650.498	1.0	652.631	0.9	2.0	True	89.0	Orange-Blue	n/a	twobytwo	89.0	1.233	blue	4.0	task_switch	color	switch	stim	poldrack-single-stim	s648	0	False
653.403	1.0	654.747	0.9	2.136	True	71.0	Orange-Blue	stay	twobytwo	71.0	0.444	orange	9.0	cue_stay	color	stay	stim	poldrack-single-stim	s648	0	False
656.445	1.0	657.812	0.9	2.0	True	71.0	Color	switch	twobytwo	71.0	0.467	orange	1.0	cue_switch	color	stay	stim	poldrack-single-stim	s648	0	False
658.549	1.0	659.749	0.1	2.408	True	71.0	Color	stay	twobytwo	71.0	1.1	orange	8.0	cue_stay	color	stay	stim	poldrack-single-stim	s648	0	False
661.863	1.0	663.992	0.9	2.0	True	71.0	Magnitude	n/a	twobytwo	71.0	1.229	blue	3.0	task_switch	magnitude	switch	stim	poldrack-single-stim	s648	0	False
664.769	1.0	666.272	0.9	2.0	True	71.0	High-Low	switch	twobytwo	71.0	0.603	blue	3.0	cue_switch	magnitude	stay	stim	poldrack-single-stim	s648	0	False
667.673	1.0	669.28	0.9	2.0	True	89.0	Magnitude	switch	twobytwo	89.0	0.707	blue	6.0	cue_switch	magnitude	stay	stim	poldrack-single-stim	s648	0	False
670.578	1.0	672.728	0.9	2.68	True	89.0	Orange-Blue	n/a	twobytwo	89.0	1.25	blue	7.0	task_switch	color	switch	stim	poldrack-single-stim	s648	0	False
673.364	1.0	674.671	0.1	2.272	True	89.0	High-Low	n/a	twobytwo	89.0	1.207	orange	9.0	task_switch	magnitude	switch	stim	poldrack-single-stim	s648	0	False
675.741	1.0	676.718	0.1	2.408	True	89.0	Orange-Blue	n/a	twobytwo	89.0	0.877	blue	7.0	task_switch	color	switch	stim	poldrack-single-stim	s648	0	False
