onset	duration	movement_onset	EV	action	block_duration	experiment_exp_id	gain_amount	gain_probability	key_press	loss_amount	loss_probability	num_cards	num_click_in_round	num_loss_cards	risk	response_time	total_cards	trial_id	trial_type	worker_id	junk	feedback
3.009	3.174	6.183	-0.1311821390690437	draw_card	3.174	columbia_card_task_fmri	12.0	0.8333333333333334	89.0	-70.0	0.1666666666666666	6.0	1.0	1.0	-3.760361186901761	3.174	n/a	stim	poldrack-single-stim	s648	False	1
6.186	3.159	9.345	-2.8645154724023763	draw_card	3.159	columbia_card_task_fmri	12.0	0.8	89.0	-70.0	0.2	6.0	2.0	1.0	-1.5225871428100248	3.159	2.0	stim	poldrack-single-stim	s648	False	0
10.099	1.5	9.348	n/a	-1.0	2.454	columbia_card_task_fmri	n/a	n/a	-1.0	n/a	n/a	n/a	n/a	n/a	n/a	n/a	n/a	ITI	poldrack-single-stim	s648	False	0
11.804	4.652	16.456	0.7021511942642902	draw_card	4.652	columbia_card_task_fmri	14.0	0.8333333333333334	89.0	-75.0	0.1666666666666666	6.0	1.0	1.0	-1.154643958755166	4.652	n/a	stim	poldrack-single-stim	s648	False	1
16.458	1.804	18.262	-2.2645154724023766	draw_card	1.804	columbia_card_task_fmri	14.0	0.8	89.0	-75.0	0.2	6.0	2.0	1.0	1.2745903403132388	1.804	n/a	stim	poldrack-single-stim	s648	False	1
18.264	1.352	19.616	-6.714515472402377	draw_card	1.352	columbia_card_task_fmri	14.0	0.75	89.0	-75.0	0.25	6.0	3.0	1.0	4.210199472008711	1.352	n/a	stim	poldrack-single-stim	s648	False	1
19.617	1.012	20.629	-14.131182139069043	end_round	1.012	columbia_card_task_fmri	14.0	0.6666666666666667	71.0	-75.0	0.3333333333333333	6.0	4.0	1.0	7.6245828439049745	1.012	3.0	stim	poldrack-single-stim	s648	False	1
21.386	1.5	20.635	n/a	-1.0	2.454	columbia_card_task_fmri	n/a	n/a	-1.0	n/a	n/a	n/a	n/a	n/a	n/a	n/a	n/a	ITI	poldrack-single-stim	s648	False	0
23.091	2.641	25.732	2.3688178609309563	draw_card	2.641	columbia_card_task_fmri	15.0	0.8333333333333334	89.0	-70.0	0.1666666666666666	6.0	1.0	1.0	-2.6436862088167388	2.641	n/a	stim	poldrack-single-stim	s648	False	1
25.733	1.169	26.902	-0.4645154724023776	draw_card	1.169	columbia_card_task_fmri	15.0	0.8	89.0	-70.0	0.2	6.0	2.0	1.0	-0.3238536309391122	1.169	n/a	stim	poldrack-single-stim	s648	False	1
26.904	0.908	27.812	-4.714515472402377	draw_card	0.908	columbia_card_task_fmri	15.0	0.75	89.0	-70.0	0.25	6.0	3.0	1.0	2.479586369952393	0.908	n/a	stim	poldrack-single-stim	s648	False	1
27.813	1.37	29.183	-11.797848805735708	end_round	1.37	columbia_card_task_fmri	15.0	0.6666666666666667	71.0	-70.0	0.3333333333333333	6.0	4.0	1.0	5.74028563466544	1.37	3.0	stim	poldrack-single-stim	s648	False	1
29.935	1.5	29.184	n/a	-1.0	2.522	columbia_card_task_fmri	n/a	n/a	-1.0	n/a	n/a	n/a	n/a	n/a	n/a	n/a	n/a	ITI	poldrack-single-stim	s648	False	0
31.708	2.381	34.089	3.20215119426429	draw_card	2.381	columbia_card_task_fmri	17.0	0.8333333333333334	89.0	-75.0	0.1666666666666666	6.0	1.0	1.0	-0.0377671360076163	2.381	n/a	stim	poldrack-single-stim	s648	False	1
34.091	1.193	35.284	0.1354845275976237	draw_card	1.193	columbia_card_task_fmri	17.0	0.8	89.0	-75.0	0.2	6.0	2.0	1.0	2.4735119936433634	1.193	n/a	stim	poldrack-single-stim	s648	False	1
35.286	2.176	37.462	-4.464515472402377	draw_card	2.176	columbia_card_task_fmri	17.0	0.75	89.0	-75.0	0.25	6.0	3.0	1.0	5.508241246712373	2.176	n/a	stim	poldrack-single-stim	s648	False	1
37.464	0.762	38.226	-12.131182139069043	end_round	0.762	columbia_card_task_fmri	17.0	0.6666666666666667	71.0	-75.0	0.3333333333333333	6.0	4.0	1.0	9.03788105327586	0.762	3.0	stim	poldrack-single-stim	s648	False	1
38.979	1.5	38.228	n/a	-1.0	2.454	columbia_card_task_fmri	n/a	n/a	-1.0	n/a	n/a	n/a	n/a	n/a	n/a	n/a	n/a	ITI	poldrack-single-stim	s648	False	0
40.685	3.13	43.815	4.535484527597623	draw_card	3.13	columbia_card_task_fmri	24.0	0.75	89.0	-60.0	0.25	8.0	1.0	2.0	2.046954460962418	3.13	n/a	stim	poldrack-single-stim	s648	False	1
43.816	2.156	45.972	1.5354845275976223	draw_card	2.156	columbia_card_task_fmri	24.0	0.7142857142857143	89.0	-60.0	0.2857142857142857	8.0	2.0	2.0	3.619876593299587	2.156	2.0	stim	poldrack-single-stim	s648	False	0
46.726	1.5	45.975	n/a	-1.0	2.658	columbia_card_task_fmri	n/a	n/a	-1.0	n/a	n/a	n/a	n/a	n/a	n/a	n/a	n/a	ITI	poldrack-single-stim	s648	False	0
48.635	4.175	52.81	4.535484527597623	draw_card	4.175	columbia_card_task_fmri	29.0	0.75	89.0	-75.0	0.25	8.0	1.0	2.0	10.700982601375408	4.175	n/a	stim	poldrack-single-stim	s648	False	1
52.812	1.561	54.373	0.8211988133119106	draw_card	1.561	columbia_card_task_fmri	29.0	0.7142857142857143	89.0	-75.0	0.2857142857142857	8.0	2.0	2.0	12.648987478793956	1.561	n/a	stim	poldrack-single-stim	s648	False	1
54.374	2.737	57.111	-4.1311821390690415	draw_card	2.737	columbia_card_task_fmri	29.0	0.6666666666666667	89.0	-75.0	0.3333333333333333	8.0	3.0	2.0	14.69160155223102	2.737	n/a	stim	poldrack-single-stim	s648	False	1
57.113	1.717	58.83	-11.06451547240238	draw_card	1.717	columbia_card_task_fmri	29.0	0.6	89.0	-75.0	0.4	8.0	4.0	2.0	16.614010975417123	1.717	n/a	stim	poldrack-single-stim	s648	False	1
58.833	3.081	61.914	-21.46451547240238	draw_card	3.081	columbia_card_task_fmri	29.0	0.5	89.0	-75.0	0.5	8.0	5.0	2.0	17.664157158998577	3.081	n/a	stim	poldrack-single-stim	s648	False	1
61.916	0.712	62.628	-38.7978488057357	end_round	0.712	columbia_card_task_fmri	29.0	0.3333333333333333	71.0	-75.0	0.6666666666666666	8.0	6.0	2.0	14.69160155223102	0.712	5.0	stim	poldrack-single-stim	s648	False	1
63.38	1.5	62.629	n/a	-1.0	2.386	columbia_card_task_fmri	n/a	n/a	-1.0	n/a	n/a	n/a	n/a	n/a	n/a	n/a	n/a	ITI	poldrack-single-stim	s648	False	0
65.018	2.782	67.8	0.3132623053754026	draw_card	2.782	columbia_card_task_fmri	17.0	0.7777777777777778	89.0	-65.0	0.2222222222222222	9.0	1.0	2.0	-0.2332895027001242	2.782	n/a	stim	poldrack-single-stim	s648	False	1
67.801	1.336	69.137	-1.9645154724023777	draw_card	1.336	columbia_card_task_fmri	17.0	0.75	89.0	-65.0	0.25	9.0	2.0	2.0	1.181718467632166	1.336	n/a	stim	poldrack-single-stim	s648	False	1
69.139	1.433	70.572	-4.893086900973804	draw_card	1.433	columbia_card_task_fmri	17.0	0.7142857142857143	89.0	-65.0	0.2857142857142857	9.0	3.0	2.0	2.7171254358027497	1.433	n/a	stim	poldrack-single-stim	s648	False	1
70.575	1.991	72.566	-8.797848805735708	draw_card	1.991	columbia_card_task_fmri	17.0	0.6666666666666667	89.0	-65.0	0.3333333333333333	9.0	4.0	2.0	4.327147199738398	1.991	n/a	stim	poldrack-single-stim	s648	False	1
72.567	0.926	73.493	-14.264515472402378	end_round	0.926	columbia_card_task_fmri	17.0	0.6	71.0	-65.0	0.4	9.0	5.0	2.0	5.842458348531494	0.926	4.0	stim	poldrack-single-stim	s648	False	1
74.246	1.5	73.495	n/a	-1.0	2.522	columbia_card_task_fmri	n/a	n/a	-1.0	n/a	n/a	n/a	n/a	n/a	n/a	n/a	n/a	ITI	poldrack-single-stim	s648	False	0
76.019	3.545	79.564	4.635484527597622	draw_card	3.545	columbia_card_task_fmri	14.0	0.9	89.0	-95.0	0.1	10.0	1.0	1.0	-1.6224774131553872	3.545	n/a	stim	poldrack-single-stim	s648	False	1
79.566	4.3	83.866	3.42437341648651	draw_card	4.3	columbia_card_task_fmri	14.0	0.8888888888888888	89.0	-95.0	0.1111111111111111	10.0	2.0	1.0	-0.0687165646970981	4.3	n/a	stim	poldrack-single-stim	s648	False	1
83.87	0.249	84.119	1.9104845275976223	draw_card	0.249	columbia_card_task_fmri	14.0	0.875	89.0	-95.0	0.125	10.0	3.0	1.0	1.7225406562791932	0.249	n/a	stim	poldrack-single-stim	s648	False	1
84.12	3.651	87.771	-0.0359440438309488	draw_card	3.651	columbia_card_task_fmri	14.0	0.8571428571428572	89.0	-95.0	0.1428571428571428	10.0	4.0	1.0	3.814440835046497	3.651	n/a	stim	poldrack-single-stim	s648	False	1
87.773	1.816	89.589	-2.631182139069042	draw_card	1.816	columbia_card_task_fmri	14.0	0.8333333333333334	89.0	-95.0	0.1666666666666666	10.0	5.0	1.0	6.292403232715813	1.816	n/a	stim	poldrack-single-stim	s648	False	1
89.591	0.519	90.11	-6.264515472402376	end_round	0.519	columbia_card_task_fmri	14.0	0.8	71.0	-95.0	0.2	10.0	6.0	1.0	9.268521395487	0.519	5.0	stim	poldrack-single-stim	s648	False	1
90.864	1.5	90.113	n/a	-1.0	2.59	columbia_card_task_fmri	n/a	n/a	-1.0	n/a	n/a	n/a	n/a	n/a	n/a	n/a	n/a	ITI	poldrack-single-stim	s648	False	0
92.705	2.337	95.042	0.5354845275976223	draw_card	2.337	columbia_card_task_fmri	15.0	0.8	89.0	-65.0	0.2	10.0	1.0	2.0	-2.3216901354696238	2.337	n/a	stim	poldrack-single-stim	s648	False	1
95.043	1.42	96.463	-1.2422932501801545	draw_card	1.42	columbia_card_task_fmri	15.0	0.7777777777777778	89.0	-65.0	0.2222222222222222	10.0	2.0	2.0	-1.0639057670924856	1.42	n/a	stim	poldrack-single-stim	s648	False	1
96.465	0.963	97.428	-3.4645154724023777	draw_card	0.963	columbia_card_task_fmri	15.0	0.75	89.0	-65.0	0.25	10.0	3.0	2.0	0.3165218881573182	0.963	n/a	stim	poldrack-single-stim	s648	False	1
97.431	1.364	98.795	-6.321658329545231	draw_card	1.364	columbia_card_task_fmri	15.0	0.7142857142857143	89.0	-65.0	0.2857142857142857	10.0	4.0	2.0	1.814412065660484	1.364	n/a	stim	poldrack-single-stim	s648	False	1
98.797	1.294	100.091	-10.13118213906904	draw_card	1.294	columbia_card_task_fmri	15.0	0.6666666666666667	89.0	-65.0	0.3333333333333333	10.0	5.0	2.0	3.38509965269121	1.294	n/a	stim	poldrack-single-stim	s648	False	1
100.093	0.43	100.523	-15.464515472402375	end_round	0.43	columbia_card_task_fmri	15.0	0.6	71.0	-65.0	0.4	10.0	6.0	2.0	4.8633952656372585	0.43	5.0	stim	poldrack-single-stim	s648	False	1
101.277	1.5	100.526	n/a	-1.0	2.386	columbia_card_task_fmri	n/a	n/a	-1.0	n/a	n/a	n/a	n/a	n/a	n/a	n/a	n/a	ITI	poldrack-single-stim	s648	False	0
102.915	1.568	104.483	2.135484527597624	draw_card	1.568	columbia_card_task_fmri	17.0	0.8	89.0	-65.0	0.2	10.0	1.0	2.0	-1.5225871428100248	1.568	n/a	stim	poldrack-single-stim	s648	False	1
104.484	1.141	105.625	0.3132623053754026	draw_card	1.141	columbia_card_task_fmri	17.0	0.7777777777777778	89.0	-65.0	0.2222222222222222	10.0	2.0	2.0	-0.2332895027001242	1.141	n/a	stim	poldrack-single-stim	s648	False	1
105.628	0.511	106.139	-1.9645154724023777	draw_card	0.511	columbia_card_task_fmri	17.0	0.75	89.0	-65.0	0.25	10.0	3.0	2.0	1.181718467632166	0.511	n/a	stim	poldrack-single-stim	s648	False	1
106.141	2.008	108.149	-4.893086900973804	draw_card	2.008	columbia_card_task_fmri	17.0	0.7142857142857143	89.0	-65.0	0.2857142857142857	10.0	4.0	2.0	2.7171254358027497	2.008	n/a	stim	poldrack-single-stim	s648	False	1
108.152	0.398	108.55	-8.797848805735708	draw_card	0.398	columbia_card_task_fmri	17.0	0.6666666666666667	89.0	-65.0	0.3333333333333333	10.0	5.0	2.0	4.327147199738398	0.398	n/a	stim	poldrack-single-stim	s648	False	1
108.553	1.0	109.553	-14.264515472402378	draw_card	1.0	columbia_card_task_fmri	17.0	0.6	89.0	-65.0	0.4	10.0	6.0	2.0	5.842458348531494	1.0	n/a	stim	poldrack-single-stim	s648	False	1
109.556	0.57	110.126	-22.46451547240238	end_round	0.57	columbia_card_task_fmri	17.0	0.5	71.0	-65.0	0.5	10.0	7.0	2.0	6.670234303389179	0.57	6.0	stim	poldrack-single-stim	s648	False	1
110.88	1.5	110.129	n/a	-1.0	2.59	columbia_card_task_fmri	n/a	n/a	-1.0	n/a	n/a	n/a	n/a	n/a	n/a	n/a	n/a	ITI	poldrack-single-stim	s648	False	0
112.722	3.369	116.091	0.7021511942642902	draw_card	3.369	columbia_card_task_fmri	13.0	0.8333333333333334	89.0	-70.0	0.1666666666666666	12.0	1.0	2.0	-3.3881470899028514	3.369	n/a	stim	poldrack-single-stim	s648	False	1
116.093	1.084	117.177	-0.5554245633114712	draw_card	1.084	columbia_card_task_fmri	13.0	0.8181818181818181	89.0	-70.0	0.1818181818181818	12.0	2.0	2.0	-2.309052213122726	1.084	n/a	stim	poldrack-single-stim	s648	False	1
117.18	0.544	117.724	-2.0645154724023773	draw_card	0.544	columbia_card_task_fmri	13.0	0.8	89.0	-70.0	0.2	12.0	3.0	2.0	-1.123019461888937	0.544	3.0	stim	poldrack-single-stim	s648	False	0
118.478	1.5	117.727	n/a	-1.0	2.318	columbia_card_task_fmri	n/a	n/a	-1.0	n/a	n/a	n/a	n/a	n/a	n/a	n/a	n/a	ITI	poldrack-single-stim	s648	False	0
120.049	2.684	122.733	0.7021511942642902	draw_card	2.684	columbia_card_task_fmri	15.0	0.8333333333333334	89.0	-80.0	0.1666666666666666	12.0	1.0	2.0	1.0791826645612304	2.684	n/a	stim	poldrack-single-stim	s648	False	1
122.736	1.02	123.756	-0.7372427451296528	draw_card	1.02	columbia_card_task_fmri	15.0	0.8181818181818181	89.0	-80.0	0.1818181818181818	12.0	2.0	2.0	2.3146385837320693	1.02	2.0	stim	poldrack-single-stim	s648	False	0
124.509	1.5	123.758	n/a	-1.0	2.25	columbia_card_task_fmri	n/a	n/a	-1.0	n/a	n/a	n/a	n/a	n/a	n/a	n/a	n/a	ITI	poldrack-single-stim	s648	False	0
126.012	3.907	129.919	-0.2645154724023766	draw_card	3.907	columbia_card_task_fmri	14.0	0.8	89.0	-65.0	0.2	15.0	1.0	3.0	-2.721224629618621	3.907	n/a	stim	poldrack-single-stim	s648	False	1
129.92	3.149	133.069	-1.3930869009738047	draw_card	3.149	columbia_card_task_fmri	14.0	0.7857142857142857	89.0	-65.0	0.2142857142857142	15.0	2.0	3.0	-1.9064154488182083	3.149	n/a	stim	poldrack-single-stim	s648	False	1
133.072	0.644	133.716	-2.6952847031716094	end_round	0.644	columbia_card_task_fmri	14.0	0.7692307692307692	71.0	-65.0	0.2307692307692307	15.0	3.0	3.0	-1.03843115711814	0.644	2.0	stim	poldrack-single-stim	s648	False	1
134.469	1.5	133.718	n/a	-1.0	2.454	columbia_card_task_fmri	n/a	n/a	-1.0	n/a	n/a	n/a	n/a	n/a	n/a	n/a	n/a	ITI	poldrack-single-stim	s648	False	0
136.177	2.866	139.043	-0.3395154724023776	end_round	2.866	columbia_card_task_fmri	1.0	0.9375	71.0	-45.0	0.0625	16.0	1.0	1.0	-23.118308585603717	2.866	0.0	stim	poldrack-single-stim	s648	False	1
139.797	1.5	139.046	n/a	-1.0	3.27	columbia_card_task_fmri	n/a	n/a	-1.0	n/a	n/a	n/a	n/a	n/a	n/a	n/a	n/a	ITI	poldrack-single-stim	s648	False	0
142.32	2.72	145.04	0.5979845275976223	draw_card	2.72	columbia_card_task_fmri	15.0	0.8125	89.0	-70.0	0.1875	16.0	1.0	3.0	-1.1464425398838929	2.72	n/a	stim	poldrack-single-stim	s648	False	1
145.042	2.532	147.574	-0.4645154724023776	draw_card	2.532	columbia_card_task_fmri	15.0	0.8	89.0	-70.0	0.2	16.0	2.0	3.0	-0.3238536309391122	2.532	2.0	stim	poldrack-single-stim	s648	False	0
148.329	1.5	147.578	n/a	-1.0	2.25	columbia_card_task_fmri	n/a	n/a	-1.0	n/a	n/a	n/a	n/a	n/a	n/a	n/a	n/a	ITI	poldrack-single-stim	s648	False	0
149.831	1.399	151.23	7.535484527597623	draw_card	1.399	columbia_card_task_fmri	30.0	0.7	89.0	-50.0	0.3	10.0	1.0	3.0	2.334239197128092	1.399	n/a	stim	poldrack-single-stim	s648	False	1
151.232	2.225	153.457	4.868817860930962	draw_card	2.225	columbia_card_task_fmri	30.0	0.6666666666666667	89.0	-50.0	0.3333333333333333	10.0	2.0	3.0	3.38509965269121	2.225	n/a	stim	poldrack-single-stim	s648	False	1
153.46	1.84	155.3	1.5354845275976223	draw_card	1.84	columbia_card_task_fmri	30.0	0.625	89.0	-50.0	0.375	10.0	3.0	3.0	4.401751235182807	1.84	3.0	stim	poldrack-single-stim	s648	False	0
156.054	1.5	155.303	n/a	-1.0	2.25	columbia_card_task_fmri	n/a	n/a	-1.0	n/a	n/a	n/a	n/a	n/a	n/a	n/a	n/a	ITI	poldrack-single-stim	s648	False	0
157.558	1.506	159.064	6.935484527597623	draw_card	1.506	columbia_card_task_fmri	17.0	0.8666666666666667	89.0	-70.0	0.1333333333333333	15.0	1.0	2.0	-4.744361043985808	1.506	n/a	stim	poldrack-single-stim	s648	False	1
159.067	1.174	160.241	6.106913099026196	draw_card	1.174	columbia_card_task_fmri	17.0	0.8571428571428572	89.0	-70.0	0.1428571428571428	15.0	2.0	2.0	-3.876152020061486	1.174	n/a	stim	poldrack-single-stim	s648	False	1
160.243	0.937	161.18	5.150869142982238	draw_card	0.937	columbia_card_task_fmri	17.0	0.8461538461538461	89.0	-70.0	0.1538461538461538	15.0	3.0	2.0	-2.931269676913651	0.937	n/a	stim	poldrack-single-stim	s648	False	1
161.183	1.294	162.477	4.0354845275976245	draw_card	1.294	columbia_card_task_fmri	17.0	0.8333333333333334	89.0	-70.0	0.1666666666666666	15.0	4.0	2.0	-1.8991842439134456	1.294	n/a	stim	poldrack-single-stim	s648	False	1
162.48	1.792	164.272	2.717302709415802	draw_card	1.792	columbia_card_task_fmri	17.0	0.8181818181818181	89.0	-70.0	0.1818181818181818	15.0	5.0	2.0	-0.7679640871339402	1.792	n/a	stim	poldrack-single-stim	s648	False	1
164.274	0.59	164.864	1.1354845275976235	end_round	0.59	columbia_card_task_fmri	17.0	0.8	71.0	-70.0	0.2	15.0	6.0	2.0	0.4753504953769152	0.59	5.0	stim	poldrack-single-stim	s648	False	1
165.618	1.5	164.867	n/a	-1.0	2.318	columbia_card_task_fmri	n/a	n/a	-1.0	n/a	n/a	n/a	n/a	n/a	n/a	n/a	n/a	ITI	poldrack-single-stim	s648	False	0
167.19	1.461	168.651	2.1604845275976223	end_round	1.461	columbia_card_task_fmri	7.0	0.9375	71.0	-95.0	0.0625	16.0	1.0	1.0	-9.620539671126291	1.461	0.0	stim	poldrack-single-stim	s648	False	1
169.403	1.5	168.652	n/a	-1.0	2.726	columbia_card_task_fmri	n/a	n/a	-1.0	n/a	n/a	n/a	n/a	n/a	n/a	n/a	n/a	ITI	poldrack-single-stim	s648	False	0
171.383	1.467	172.85	3.7229845275976223	end_round	1.467	columbia_card_task_fmri	9.0	0.9375	71.0	-100.0	0.0625	16.0	1.0	1.0	-7.92916739038235	1.467	0.0	stim	poldrack-single-stim	s648	False	1
173.605	1.5	172.854	n/a	-1.0	2.386	columbia_card_task_fmri	n/a	n/a	-1.0	n/a	n/a	n/a	n/a	n/a	n/a	n/a	n/a	ITI	poldrack-single-stim	s648	False	0
175.244	1.991	177.235	4.660484527597623	draw_card	1.991	columbia_card_task_fmri	15.0	0.875	89.0	-80.0	0.125	16.0	1.0	2.0	-2.9027124428015405	1.991	n/a	stim	poldrack-single-stim	s648	False	1
177.239	2.681	179.92	3.868817860930956	draw_card	2.681	columbia_card_task_fmri	15.0	0.8666666666666667	89.0	-80.0	0.1333333333333333	16.0	2.0	2.0	-2.0282344526400564	2.681	n/a	stim	poldrack-single-stim	s648	False	1
179.923	0.543	180.466	2.964055956169053	draw_card	0.543	columbia_card_task_fmri	15.0	0.8571428571428572	89.0	-80.0	0.1428571428571428	16.0	3.0	2.0	-1.0799903171969234	0.543	n/a	stim	poldrack-single-stim	s648	False	1
180.468	1.419	181.887	1.9200999122130056	draw_card	1.419	columbia_card_task_fmri	15.0	0.8461538461538461	89.0	-80.0	0.1538461538461538	16.0	4.0	2.0	-0.048017346147354	1.419	4.0	stim	poldrack-single-stim	s648	False	0
182.641	1.5	181.89	n/a	-1.0	2.318	columbia_card_task_fmri	n/a	n/a	-1.0	n/a	n/a	n/a	n/a	n/a	n/a	n/a	n/a	ITI	poldrack-single-stim	s648	False	0
184.213	1.337	185.55	6.785484527597623	draw_card	1.337	columbia_card_task_fmri	16.0	0.875	89.0	-70.0	0.125	16.0	1.0	2.0	-5.875263795357693	1.337	n/a	stim	poldrack-single-stim	s648	False	1
185.553	1.298	186.851	6.068817860930956	draw_card	1.298	columbia_card_task_fmri	16.0	0.8666666666666667	89.0	-70.0	0.1333333333333333	16.0	2.0	2.0	-5.083833126176966	1.298	n/a	stim	poldrack-single-stim	s648	False	1
186.853	1.173	188.026	5.249770241883338	draw_card	1.173	columbia_card_task_fmri	16.0	0.8571428571428572	89.0	-70.0	0.1428571428571428	16.0	3.0	2.0	-4.225629731082783	1.173	n/a	stim	poldrack-single-stim	s648	False	1
188.029	2.166	190.195	4.304715296828391	draw_card	2.166	columbia_card_task_fmri	16.0	0.8461538461538461	89.0	-70.0	0.1538461538461538	16.0	4.0	2.0	-3.2916349884997835	2.166	4.0	stim	poldrack-single-stim	s648	False	0
190.95	1.5	190.199	n/a	-1.0	2.25	columbia_card_task_fmri	n/a	n/a	-1.0	n/a	n/a	n/a	n/a	n/a	n/a	n/a	n/a	ITI	poldrack-single-stim	s648	False	0
192.453	1.643	194.096	8.097984527597623	draw_card	1.643	columbia_card_task_fmri	30.0	0.6875	89.0	-45.0	0.3125	16.0	1.0	5.0	0.4388164868299569	1.643	n/a	stim	poldrack-single-stim	s648	False	1
194.098	0.828	194.926	6.535484527597626	draw_card	0.828	columbia_card_task_fmri	30.0	0.6666666666666667	89.0	-45.0	0.3333333333333333	16.0	2.0	5.0	1.0301582285554505	0.828	n/a	stim	poldrack-single-stim	s648	False	1
194.931	0.28	195.211	4.749770241883335	draw_card	0.28	columbia_card_task_fmri	30.0	0.6428571428571428	89.0	-45.0	0.3571428571428571	16.0	3.0	5.0	1.6110871995240077	0.28	n/a	stim	poldrack-single-stim	s648	False	1
195.214	2.061	197.275	2.689330681443776	draw_card	2.061	columbia_card_task_fmri	30.0	0.6153846153846154	89.0	-45.0	0.3846153846153846	16.0	4.0	5.0	2.1616048652766224	2.061	n/a	stim	poldrack-single-stim	s648	False	1
197.278	1.325	198.603	0.2854845275976188	end_round	1.325	columbia_card_task_fmri	30.0	0.5833333333333333	71.0	-45.0	0.4166666666666667	16.0	5.0	5.0	2.648858790091168	1.325	4.0	stim	poldrack-single-stim	s648	False	1
199.356	1.5	198.605	n/a	-1.0	2.25	columbia_card_task_fmri	n/a	n/a	-1.0	n/a	n/a	n/a	n/a	n/a	n/a	n/a	n/a	ITI	poldrack-single-stim	s648	False	0
200.859	2.33	203.189	-0.1311821390690437	draw_card	2.33	columbia_card_task_fmri	13.0	0.8333333333333334	89.0	-75.0	0.1666666666666666	6.0	1.0	1.0	-1.5269187284299832	2.33	n/a	stim	poldrack-single-stim	s648	False	1
203.192	2.648	205.84	-3.0645154724023773	draw_card	2.648	columbia_card_task_fmri	13.0	0.8	89.0	-75.0	0.2	6.0	2.0	1.0	0.8749661049359219	2.648	n/a	stim	poldrack-single-stim	s648	False	1
205.843	0.929	206.772	-7.464515472402377	end_round	0.929	columbia_card_task_fmri	13.0	0.75	71.0	-75.0	0.25	6.0	3.0	1.0	3.777533958341984	0.929	2.0	stim	poldrack-single-stim	s648	False	1
207.525	1.5	206.774	n/a	-1.0	2.454	columbia_card_task_fmri	n/a	n/a	-1.0	n/a	n/a	n/a	n/a	n/a	n/a	n/a	n/a	ITI	poldrack-single-stim	s648	False	0
209.233	2.065	211.298	1.535484527597624	draw_card	2.065	columbia_card_task_fmri	14.0	0.8333333333333334	89.0	-70.0	0.1666666666666666	6.0	1.0	1.0	-3.015921967810403	2.065	1.0	stim	poldrack-single-stim	s648	False	0
212.052	1.5	211.301	n/a	-1.0	2.454	columbia_card_task_fmri	n/a	n/a	-1.0	n/a	n/a	n/a	n/a	n/a	n/a	n/a	n/a	ITI	poldrack-single-stim	s648	False	0
213.76	3.727	217.487	1.535484527597624	draw_card	3.727	columbia_card_task_fmri	16.0	0.8333333333333334	89.0	-80.0	0.1666666666666666	6.0	1.0	1.0	1.451514301779568	3.727	n/a	stim	poldrack-single-stim	s648	False	1
217.489	3.092	220.581	-1.664515472402377	draw_card	3.092	columbia_card_task_fmri	16.0	0.8	89.0	-80.0	0.2	6.0	2.0	1.0	4.072178906703179	3.092	2.0	stim	poldrack-single-stim	s648	False	0
221.336	1.5	220.585	n/a	-1.0	2.522	columbia_card_task_fmri	n/a	n/a	-1.0	n/a	n/a	n/a	n/a	n/a	n/a	n/a	n/a	ITI	poldrack-single-stim	s648	False	0
223.111	1.681	224.792	4.0354845275976245	draw_card	1.681	columbia_card_task_fmri	17.0	0.8333333333333334	89.0	-70.0	0.1666666666666666	6.0	1.0	1.0	-1.8991842439134456	1.681	n/a	stim	poldrack-single-stim	s648	False	1
224.796	1.959	226.755	1.1354845275976235	draw_card	1.959	columbia_card_task_fmri	17.0	0.8	89.0	-70.0	0.2	6.0	2.0	1.0	0.4753504953769152	1.959	n/a	stim	poldrack-single-stim	s648	False	1
226.757	2.066	228.823	-3.2145154724023777	draw_card	2.066	columbia_card_task_fmri	17.0	0.75	89.0	-70.0	0.25	6.0	3.0	1.0	3.3448764161960725	2.066	n/a	stim	poldrack-single-stim	s648	False	1
228.827	0.494	229.321	-10.464515472402375	end_round	0.494	columbia_card_task_fmri	17.0	0.6666666666666667	71.0	-70.0	0.3333333333333333	6.0	4.0	1.0	6.682419072772731	0.494	3.0	stim	poldrack-single-stim	s648	False	1
230.075	1.5	229.324	n/a	-1.0	2.386	columbia_card_task_fmri	n/a	n/a	-1.0	n/a	n/a	n/a	n/a	n/a	n/a	n/a	n/a	ITI	poldrack-single-stim	s648	False	0
231.716	4.422	236.138	4.035484527597623	draw_card	4.422	columbia_card_task_fmri	25.0	0.75	89.0	-65.0	0.25	8.0	1.0	2.0	4.642872691897786	4.422	n/a	stim	poldrack-single-stim	s648	False	1
236.14	0.151	236.291	0.8211988133119106	draw_card	0.151	columbia_card_task_fmri	25.0	0.7142857142857143	89.0	-65.0	0.2857142857142857	8.0	2.0	2.0	6.3283316368594384	0.151	n/a	stim	poldrack-single-stim	s648	False	1
236.295	1.35	237.645	-3.464515472402374	draw_card	1.35	columbia_card_task_fmri	25.0	0.6666666666666667	89.0	-65.0	0.3333333333333333	8.0	3.0	2.0	8.095675473265672	1.35	3.0	stim	poldrack-single-stim	s648	False	0
238.399	1.5	237.648	n/a	-1.0	2.454	columbia_card_task_fmri	n/a	n/a	-1.0	n/a	n/a	n/a	n/a	n/a	n/a	n/a	n/a	ITI	poldrack-single-stim	s648	False	0
240.108	1.077	241.185	4.035484527597623	draw_card	1.077	columbia_card_task_fmri	30.0	0.75	89.0	-80.0	0.25	8.0	1.0	2.0	13.297632130448214	1.077	n/a	stim	poldrack-single-stim	s648	False	1
241.188	1.902	243.09	0.1069130990261988	draw_card	1.902	columbia_card_task_fmri	30.0	0.7142857142857143	89.0	-80.0	0.2857142857142857	8.0	2.0	2.0	15.358143600285864	1.902	n/a	stim	poldrack-single-stim	s648	False	1
243.093	1.218	244.311	-5.131182139069038	draw_card	1.218	columbia_card_task_fmri	30.0	0.6666666666666667	89.0	-80.0	0.3333333333333333	8.0	3.0	2.0	17.51871801678935	1.218	n/a	stim	poldrack-single-stim	s648	False	1
244.314	0.666	244.98	-12.464515472402375	draw_card	0.666	columbia_card_task_fmri	30.0	0.6	89.0	-80.0	0.4	8.0	4.0	2.0	19.55213741840616	0.666	n/a	stim	poldrack-single-stim	s648	False	1
244.984	0.524	245.508	-23.46451547240238	end_round	0.524	columbia_card_task_fmri	30.0	0.5	71.0	-80.0	0.5	8.0	5.0	2.0	20.66292136119462	0.524	4.0	stim	poldrack-single-stim	s648	False	1
246.262	1.5	245.511	n/a	-1.0	2.522	columbia_card_task_fmri	n/a	n/a	-1.0	n/a	n/a	n/a	n/a	n/a	n/a	n/a	n/a	ITI	poldrack-single-stim	s648	False	0
248.038	2.605	250.643	3.735484527597624	draw_card	2.605	columbia_card_task_fmri	13.0	0.9	89.0	-95.0	0.1	10.0	1.0	1.0	-1.9221441669133696	2.605	n/a	stim	poldrack-single-stim	s648	False	1
250.646	1.078	251.724	2.5354845275976223	draw_card	1.078	columbia_card_task_fmri	13.0	0.8888888888888888	89.0	-95.0	0.1111111111111111	10.0	2.0	1.0	-0.3826680832759308	1.078	n/a	stim	poldrack-single-stim	s648	False	1
251.727	1.019	252.746	1.0354845275976223	draw_card	1.019	columbia_card_task_fmri	13.0	0.875	89.0	-95.0	0.125	10.0	3.0	1.0	1.3921241241964069	1.019	n/a	stim	poldrack-single-stim	s648	False	1
252.748	2.08	254.828	-0.8930869009738047	draw_card	2.08	columbia_card_task_fmri	13.0	0.8571428571428572	89.0	-95.0	0.1428571428571428	10.0	4.0	1.0	3.4647995542422407	2.08	4.0	stim	poldrack-single-stim	s648	False	0
255.583	1.5	254.832	n/a	-1.0	2.522	columbia_card_task_fmri	n/a	n/a	-1.0	n/a	n/a	n/a	n/a	n/a	n/a	n/a	n/a	ITI	poldrack-single-stim	s648	False	0
257.358	1.24	258.598	5.135484527597622	draw_card	1.24	columbia_card_task_fmri	14.0	0.9	89.0	-90.0	0.1	10.0	1.0	1.0	-3.120747209083465	1.24	n/a	stim	poldrack-single-stim	s648	False	1
258.602	2.311	260.913	3.979928972042065	draw_card	2.311	columbia_card_task_fmri	14.0	0.8888888888888888	89.0	-90.0	0.1111111111111111	10.0	2.0	1.0	-1.638413070890131	2.311	n/a	stim	poldrack-single-stim	s648	False	1
260.915	0.912	261.827	2.5354845275976223	draw_card	0.912	columbia_card_task_fmri	14.0	0.875	89.0	-90.0	0.125	10.0	3.0	1.0	0.0705160618428024	0.912	n/a	stim	poldrack-single-stim	s648	False	1
261.83	0.587	262.417	0.6783416704547665	end_round	0.587	columbia_card_task_fmri	14.0	0.8571428571428572	71.0	-90.0	0.1428571428571428	10.0	4.0	1.0	2.066289326182769	0.587	3.0	stim	poldrack-single-stim	s648	False	1
263.171	1.5	262.42	n/a	-1.0	2.59	columbia_card_task_fmri	n/a	n/a	-1.0	n/a	n/a	n/a	n/a	n/a	n/a	n/a	n/a	ITI	poldrack-single-stim	s648	False	0
265.016	2.492	267.508	0.335484527597623	draw_card	2.492	columbia_card_task_fmri	16.0	0.8	89.0	-70.0	0.2	10.0	1.0	2.0	0.0757438119486835	2.492	n/a	stim	poldrack-single-stim	s648	False	1
267.511	1.516	269.027	-1.5756265835134884	draw_card	1.516	columbia_card_task_fmri	16.0	0.7777777777777778	89.0	-70.0	0.2222222222222222	10.0	2.0	2.0	1.4280632931318564	1.516	n/a	stim	poldrack-single-stim	s648	False	1
269.031	1.603	270.634	-3.9645154724023777	draw_card	1.603	columbia_card_task_fmri	16.0	0.75	89.0	-70.0	0.25	10.0	3.0	2.0	2.9122271231833	1.603	n/a	stim	poldrack-single-stim	s648	False	1
270.638	2.886	273.524	-7.035944043830948	draw_card	2.886	columbia_card_task_fmri	16.0	0.7142857142857143	89.0	-70.0	0.2857142857142857	10.0	4.0	2.0	4.522662906086978	2.886	n/a	stim	poldrack-single-stim	s648	False	1
273.527	2.394	275.921	-11.131182139069042	end_round	2.394	columbia_card_task_fmri	16.0	0.6666666666666667	71.0	-70.0	0.3333333333333333	10.0	5.0	2.0	6.211348430012748	2.394	4.0	stim	poldrack-single-stim	s648	False	1
276.675	1.5	275.924	n/a	-1.0	2.454	columbia_card_task_fmri	n/a	n/a	-1.0	n/a	n/a	n/a	n/a	n/a	n/a	n/a	n/a	ITI	poldrack-single-stim	s648	False	0
278.383	1.952	280.335	-0.3811821390690437	end_round	1.952	columbia_card_task_fmri	7.0	0.9166666666666666	71.0	-100.0	0.0833333333333333	12.0	1.0	1.0	-4.745435062161253	1.952	0.0	stim	poldrack-single-stim	s648	False	1
281.09	1.5	280.339	n/a	-1.0	2.318	columbia_card_task_fmri	n/a	n/a	-1.0	n/a	n/a	n/a	n/a	n/a	n/a	n/a	n/a	ITI	poldrack-single-stim	s648	False	0
282.663	1.537	284.2	-0.1311821390690419	draw_card	1.537	columbia_card_task_fmri	14.0	0.8333333333333334	89.0	-80.0	0.1666666666666666	12.0	1.0	2.0	0.7068583861948667	1.537	n/a	stim	poldrack-single-stim	s648	False	1
284.204	1.392	285.596	-1.5554245633114712	draw_card	1.392	columbia_card_task_fmri	14.0	0.8181818181818181	89.0	-80.0	0.1818181818181818	12.0	2.0	2.0	1.9292857885337256	1.392	n/a	stim	poldrack-single-stim	s648	False	1
285.6	0.754	286.354	-3.2645154724023766	draw_card	0.754	columbia_card_task_fmri	14.0	0.8	89.0	-80.0	0.2	12.0	3.0	2.0	3.2728312861136644	0.754	n/a	stim	poldrack-single-stim	s648	False	1
286.358	0.575	286.933	-5.3534043612912665	end_round	0.575	columbia_card_task_fmri	14.0	0.7777777777777778	71.0	-80.0	0.2222222222222222	12.0	4.0	2.0	4.751178426392215	0.575	3.0	stim	poldrack-single-stim	s648	False	1
287.688	1.5	286.937	n/a	-1.0	2.25	columbia_card_task_fmri	n/a	n/a	-1.0	n/a	n/a	n/a	n/a	n/a	n/a	n/a	n/a	ITI	poldrack-single-stim	s648	False	0
289.191	2.633	291.824	1.5354845275976223	draw_card	2.633	columbia_card_task_fmri	15.0	0.8333333333333334	89.0	-75.0	0.1666666666666666	12.0	1.0	2.0	-0.7823602427058987	2.633	n/a	stim	poldrack-single-stim	s648	False	1
291.828	1.76	293.588	0.1718481639612572	draw_card	1.76	columbia_card_task_fmri	15.0	0.8181818181818181	89.0	-75.0	0.1818181818181818	12.0	2.0	2.0	0.3879504583763804	1.76	n/a	stim	poldrack-single-stim	s648	False	1
293.592	0.491	294.083	-1.4645154724023777	draw_card	0.491	columbia_card_task_fmri	15.0	0.8	89.0	-75.0	0.2	12.0	3.0	2.0	1.674222914512626	0.491	3.0	stim	poldrack-single-stim	s648	False	0
294.838	1.5	294.087	n/a	-1.0	2.658	columbia_card_task_fmri	n/a	n/a	-1.0	n/a	n/a	n/a	n/a	n/a	n/a	n/a	n/a	ITI	poldrack-single-stim	s648	False	0
296.75	1.919	298.669	0.5354845275976223	draw_card	1.919	columbia_card_task_fmri	15.0	0.8	89.0	-65.0	0.2	15.0	1.0	3.0	-2.3216901354696238	1.919	n/a	stim	poldrack-single-stim	s648	False	1
298.672	2.301	300.973	-0.60737261525952	draw_card	2.301	columbia_card_task_fmri	15.0	0.7857142857142857	89.0	-65.0	0.2142857142857142	15.0	2.0	3.0	-1.4965433761898763	2.301	2.0	stim	poldrack-single-stim	s648	False	0
301.728	1.5	300.977	n/a	-1.0	2.454	columbia_card_task_fmri	n/a	n/a	-1.0	n/a	n/a	n/a	n/a	n/a	n/a	n/a	n/a	ITI	poldrack-single-stim	s648	False	0
303.436	3.8	307.236	-0.2145154724023776	draw_card	3.8	columbia_card_task_fmri	14.0	0.8125	89.0	-70.0	0.1875	16.0	1.0	3.0	-1.536332591511524	3.8	n/a	stim	poldrack-single-stim	s648	False	1
307.238	1.481	308.719	-1.2645154724023766	draw_card	1.481	columbia_card_task_fmri	14.0	0.8	89.0	-70.0	0.2	16.0	2.0	3.0	-0.7234415039430075	1.481	2.0	stim	poldrack-single-stim	s648	False	0
309.474	1.5	308.723	n/a	-1.0	2.386	columbia_card_task_fmri	n/a	n/a	-1.0	n/a	n/a	n/a	n/a	n/a	n/a	n/a	n/a	ITI	poldrack-single-stim	s648	False	0
311.115	1.499	312.614	-0.2770154724023776	draw_card	1.499	columbia_card_task_fmri	11.0	0.6875	89.0	-30.0	0.3125	16.0	1.0	5.0	-15.292568520332182	1.499	n/a	stim	poldrack-single-stim	s648	False	1
312.617	1.907	314.524	-1.1311821390690435	draw_card	1.907	columbia_card_task_fmri	11.0	0.6666666666666667	89.0	-30.0	0.3333333333333333	16.0	2.0	5.0	-14.97002533867559	1.907	n/a	stim	poldrack-single-stim	s648	False	1
314.528	1.28	315.808	-2.107372615259522	draw_card	1.28	columbia_card_task_fmri	11.0	0.6428571428571428	89.0	-30.0	0.3571428571428571	16.0	3.0	5.0	-14.653138636119678	1.28	n/a	stim	poldrack-single-stim	s648	False	1
315.812	1.182	316.994	-3.233746241633146	draw_card	1.182	columbia_card_task_fmri	11.0	0.6153846153846154	89.0	-30.0	0.3846153846153846	16.0	4.0	5.0	-14.352820644367515	1.182	4.0	stim	poldrack-single-stim	s648	False	0
317.749	1.5	316.998	n/a	-1.0	2.59	columbia_card_task_fmri	n/a	n/a	-1.0	n/a	n/a	n/a	n/a	n/a	n/a	n/a	n/a	ITI	poldrack-single-stim	s648	False	0
319.592	1.46	321.052	4.535484527597623	draw_card	1.46	columbia_card_task_fmri	15.0	0.8666666666666667	89.0	-75.0	0.1333333333333333	15.0	1.0	2.0	-3.725883243180349	1.46	n/a	stim	poldrack-single-stim	s648	False	1
321.056	1.488	322.544	3.6783416704547673	draw_card	1.488	columbia_card_task_fmri	15.0	0.8571428571428572	89.0	-75.0	0.1428571428571428	15.0	2.0	2.0	-2.827659077116575	1.488	n/a	stim	poldrack-single-stim	s648	False	1
322.547	1.501	324.048	2.689330681443776	draw_card	1.501	columbia_card_task_fmri	15.0	0.8461538461538461	89.0	-75.0	0.1538461538461538	15.0	3.0	2.0	-1.850115721947887	1.501	n/a	stim	poldrack-single-stim	s648	False	1
324.052	2.464	326.516	1.5354845275976223	end_round	2.464	columbia_card_task_fmri	15.0	0.8333333333333334	71.0	-75.0	0.1666666666666666	15.0	4.0	2.0	-0.7823602427058987	2.464	3.0	stim	poldrack-single-stim	s648	False	1
327.271	1.5	326.52	n/a	-1.0	2.318	columbia_card_task_fmri	n/a	n/a	-1.0	n/a	n/a	n/a	n/a	n/a	n/a	n/a	n/a	ITI	poldrack-single-stim	s648	False	0
328.843	2.512	331.355	6.268817860930957	draw_card	2.512	columbia_card_task_fmri	17.0	0.8666666666666667	89.0	-75.0	0.1333333333333333	15.0	1.0	2.0	-3.046850084444028	2.512	n/a	stim	poldrack-single-stim	s648	False	1
331.358	1.262	332.62	5.392627384740482	draw_card	1.262	columbia_card_task_fmri	17.0	0.8571428571428572	89.0	-75.0	0.1428571428571428	15.0	2.0	2.0	-2.128617183136626	1.262	n/a	stim	poldrack-single-stim	s648	False	1
332.624	1.257	333.881	4.3816383737514695	draw_card	1.257	columbia_card_task_fmri	17.0	0.8461538461538461	89.0	-75.0	0.1538461538461538	15.0	3.0	2.0	-1.1293012147526582	1.257	n/a	stim	poldrack-single-stim	s648	False	1
333.884	2.096	335.98	3.20215119426429	end_round	2.096	columbia_card_task_fmri	17.0	0.8333333333333334	71.0	-75.0	0.1666666666666666	15.0	4.0	2.0	-0.0377671360076163	2.096	3.0	stim	poldrack-single-stim	s648	False	1
336.735	1.5	335.984	n/a	-1.0	2.59	columbia_card_task_fmri	n/a	n/a	-1.0	n/a	n/a	n/a	n/a	n/a	n/a	n/a	n/a	ITI	poldrack-single-stim	s648	False	0
338.58	1.337	339.917	1.8479845275976223	end_round	1.337	columbia_card_task_fmri	2.0	0.9375	71.0	-25.0	0.0625	16.0	1.0	1.0	-27.64489842077789	1.337	0.0	stim	poldrack-single-stim	s648	False	1
340.672	1.5	339.921	n/a	-1.0	2.386	columbia_card_task_fmri	n/a	n/a	-1.0	n/a	n/a	n/a	n/a	n/a	n/a	n/a	n/a	ITI	poldrack-single-stim	s648	False	0
342.31	3.429	345.739	4.035484527597623	end_round	3.429	columbia_card_task_fmri	9.0	0.9375	71.0	-95.0	0.0625	16.0	1.0	1.0	-9.13733233685	3.429	0.0	stim	poldrack-single-stim	s648	False	1
346.494	1.5	345.743	n/a	-1.0	2.318	columbia_card_task_fmri	n/a	n/a	-1.0	n/a	n/a	n/a	n/a	n/a	n/a	n/a	n/a	ITI	poldrack-single-stim	s648	False	0
348.067	1.361	349.428	5.597984527597623	end_round	1.361	columbia_card_task_fmri	11.0	0.9375	71.0	-100.0	0.0625	16.0	1.0	1.0	-7.445847506279815	1.361	0.0	stim	poldrack-single-stim	s648	False	1
350.184	1.5	349.433	n/a	-1.0	2.318	columbia_card_task_fmri	n/a	n/a	-1.0	n/a	n/a	n/a	n/a	n/a	n/a	n/a	n/a	ITI	poldrack-single-stim	s648	False	0
351.756	0.951	352.707	6.160484527597623	draw_card	0.951	columbia_card_task_fmri	16.0	0.875	89.0	-75.0	0.125	16.0	1.0	2.0	-4.22394188884736	0.951	n/a	stim	poldrack-single-stim	s648	False	1
352.712	1.47	354.182	5.40215119426429	draw_card	1.47	columbia_card_task_fmri	16.0	0.8666666666666667	89.0	-75.0	0.1333333333333333	16.0	2.0	2.0	-3.3863712493509404	1.47	n/a	stim	poldrack-single-stim	s648	False	1
354.186	2.368	356.554	4.5354845275976245	draw_card	2.368	columbia_card_task_fmri	16.0	0.8571428571428572	89.0	-75.0	0.1428571428571428	16.0	3.0	2.0	-2.478142585646193	2.368	3.0	stim	poldrack-single-stim	s648	False	0
357.31	1.5	356.559	n/a	-1.0	2.318	columbia_card_task_fmri	n/a	n/a	-1.0	n/a	n/a	n/a	n/a	n/a	n/a	n/a	n/a	ITI	poldrack-single-stim	s648	False	0
358.884	2.541	361.425	6.410484527597623	draw_card	2.541	columbia_card_task_fmri	17.0	0.875	89.0	-80.0	0.125	16.0	1.0	2.0	-2.242046895907862	2.541	n/a	stim	poldrack-single-stim	s648	False	1
361.428	0.58	362.008	5.602151194264291	draw_card	0.58	columbia_card_task_fmri	17.0	0.8666666666666667	89.0	-80.0	0.1333333333333333	16.0	2.0	2.0	-1.349116598659755	0.58	n/a	stim	poldrack-single-stim	s648	False	1
362.011	1.702	363.713	4.678341670454769	draw_card	1.702	columbia_card_task_fmri	17.0	0.8571428571428572	89.0	-80.0	0.1428571428571428	16.0	3.0	2.0	-0.3808661302987772	1.702	n/a	stim	poldrack-single-stim	s648	False	1
363.717	0.619	364.336	3.612407604520699	draw_card	0.619	columbia_card_task_fmri	17.0	0.8461538461538461	89.0	-80.0	0.1538461538461538	16.0	4.0	2.0	0.6728769894197413	0.619	n/a	stim	poldrack-single-stim	s648	False	1
364.34	1.013	365.353	2.368817860930958	draw_card	1.013	columbia_card_task_fmri	17.0	0.8333333333333334	89.0	-80.0	0.1666666666666666	16.0	5.0	2.0	1.8238530706728893	1.013	5.0	stim	poldrack-single-stim	s648	False	0
366.109	1.5	365.358	n/a	-1.0	2.386	columbia_card_task_fmri	n/a	n/a	-1.0	n/a	n/a	n/a	n/a	n/a	n/a	n/a	n/a	ITI	poldrack-single-stim	s648	False	0
378.752	3.735	382.487	0.7021511942642902	draw_card	3.735	columbia_card_task_fmri	13.0	0.8333333333333334	89.0	-70.0	0.1666666666666666	6.0	1.0	1.0	-3.3881470899028514	3.735	n/a	stim	poldrack-single-stim	s648	False	1
382.49	2.346	384.836	-2.0645154724023773	draw_card	2.346	columbia_card_task_fmri	13.0	0.8	89.0	-70.0	0.2	6.0	2.0	1.0	-1.123019461888937	2.346	n/a	stim	poldrack-single-stim	s648	False	1
384.839	0.595	385.434	-6.214515472402377	end_round	0.595	columbia_card_task_fmri	13.0	0.75	71.0	-70.0	0.25	6.0	3.0	1.0	1.6143317153125096	0.595	2.0	stim	poldrack-single-stim	s648	False	1
386.19	1.5	385.439	n/a	-1.0	2.25	columbia_card_task_fmri	n/a	n/a	-1.0	n/a	n/a	n/a	n/a	n/a	n/a	n/a	n/a	ITI	poldrack-single-stim	s648	False	0
387.693	2.071	389.764	0.7021511942642902	draw_card	2.071	columbia_card_task_fmri	15.0	0.8333333333333334	89.0	-80.0	0.1666666666666666	6.0	1.0	1.0	1.0791826645612304	2.071	1.0	stim	poldrack-single-stim	s648	False	0
390.52	1.5	389.769	n/a	-1.0	2.386	columbia_card_task_fmri	n/a	n/a	-1.0	n/a	n/a	n/a	n/a	n/a	n/a	n/a	n/a	ITI	poldrack-single-stim	s648	False	0
392.16	1.224	393.384	2.3688178609309563	draw_card	1.224	columbia_card_task_fmri	16.0	0.8333333333333334	89.0	-75.0	0.1666666666666666	6.0	1.0	1.0	-0.4100678746040387	1.224	n/a	stim	poldrack-single-stim	s648	False	1
393.388	0.679	394.067	-0.664515472402377	draw_card	0.679	columbia_card_task_fmri	16.0	0.8	89.0	-75.0	0.2	6.0	2.0	1.0	2.07386355312444	0.679	n/a	stim	poldrack-single-stim	s648	False	1
394.071	0.882	394.953	-5.214515472402377	end_round	0.882	columbia_card_task_fmri	16.0	0.75	71.0	-75.0	0.25	6.0	3.0	1.0	5.0755533643496165	0.882	2.0	stim	poldrack-single-stim	s648	False	1
395.708	1.5	394.957	n/a	-1.0	2.59	columbia_card_task_fmri	n/a	n/a	-1.0	n/a	n/a	n/a	n/a	n/a	n/a	n/a	n/a	ITI	poldrack-single-stim	s648	False	0
397.552	2.915	400.467	3.5354845275976223	draw_card	2.915	columbia_card_task_fmri	21.0	0.75	89.0	-55.0	0.25	8.0	1.0	2.0	-1.4137406083095598	2.915	n/a	stim	poldrack-single-stim	s648	False	1
400.471	1.444	401.915	0.8211988133119088	draw_card	1.444	columbia_card_task_fmri	21.0	0.7142857142857143	89.0	-55.0	0.2857142857142857	8.0	2.0	2.0	0.0091105977669627	1.444	2.0	stim	poldrack-single-stim	s648	False	0
402.67	1.5	401.919	n/a	-1.0	2.658	columbia_card_task_fmri	n/a	n/a	-1.0	n/a	n/a	n/a	n/a	n/a	n/a	n/a	n/a	ITI	poldrack-single-stim	s648	False	0
404.583	1.36	405.943	4.785484527597623	draw_card	1.36	columbia_card_task_fmri	26.0	0.75	89.0	-65.0	0.25	8.0	1.0	2.0	5.0755533643496165	1.36	n/a	stim	poldrack-single-stim	s648	False	1
405.947	1.084	407.031	1.535484527597626	draw_card	1.084	columbia_card_task_fmri	26.0	0.7142857142857143	89.0	-65.0	0.2857142857142857	8.0	2.0	2.0	6.7797673035487165	1.084	n/a	stim	poldrack-single-stim	s648	False	1
407.034	0.647	407.681	-2.7978488057357063	end_round	0.647	columbia_card_task_fmri	26.0	0.6666666666666667	71.0	-65.0	0.3333333333333333	8.0	3.0	2.0	8.56677495073047	0.647	2.0	stim	poldrack-single-stim	s648	False	1
408.435	1.5	407.684	n/a	-1.0	2.386	columbia_card_task_fmri	n/a	n/a	-1.0	n/a	n/a	n/a	n/a	n/a	n/a	n/a	n/a	ITI	poldrack-single-stim	s648	False	0
410.076	2.28	412.356	-0.1311821390690437	draw_card	2.28	columbia_card_task_fmri	15.0	0.7777777777777778	89.0	-60.0	0.2222222222222222	9.0	1.0	2.0	-3.1402453727945385	2.28	1.0	stim	poldrack-single-stim	s648	False	0
413.112	1.5	412.361	n/a	-1.0	2.386	columbia_card_task_fmri	n/a	n/a	-1.0	n/a	n/a	n/a	n/a	n/a	n/a	n/a	n/a	ITI	poldrack-single-stim	s648	False	0
414.753	2.582	417.335	4.235484527597624	draw_card	2.582	columbia_card_task_fmri	13.0	0.9	89.0	-90.0	0.1	10.0	1.0	1.0	-3.4203810469982585	2.582	n/a	stim	poldrack-single-stim	s648	False	1
417.339	1.297	418.636	3.0910400831531777	draw_card	1.297	columbia_card_task_fmri	13.0	0.8888888888888888	89.0	-90.0	0.1111111111111111	10.0	2.0	1.0	-1.9523331584482195	1.297	n/a	stim	poldrack-single-stim	s648	False	1
418.64	1.099	419.739	1.6604845275976223	draw_card	1.099	columbia_card_task_fmri	13.0	0.875	89.0	-90.0	0.125	10.0	3.0	1.0	-0.2598705932974354	1.099	n/a	stim	poldrack-single-stim	s648	False	1
419.744	0.713	420.457	-0.1788011866880894	end_round	0.713	columbia_card_task_fmri	13.0	0.8571428571428572	71.0	-90.0	0.1428571428571428	10.0	4.0	1.0	1.716676290993128	0.713	3.0	stim	poldrack-single-stim	s648	False	1
421.213	1.5	420.462	n/a	-1.0	2.25	columbia_card_task_fmri	n/a	n/a	-1.0	n/a	n/a	n/a	n/a	n/a	n/a	n/a	n/a	ITI	poldrack-single-stim	s648	False	0
422.718	3.079	425.797	5.535484527597623	draw_card	3.079	columbia_card_task_fmri	15.0	0.9	89.0	-95.0	0.1	10.0	1.0	1.0	-1.3228046102842228	3.079	n/a	stim	poldrack-single-stim	s648	False	1
425.801	1.136	426.937	4.3132623053754	draw_card	1.136	columbia_card_task_fmri	15.0	0.8888888888888888	89.0	-95.0	0.1111111111111111	10.0	2.0	1.0	0.2452407300217203	1.136	n/a	stim	poldrack-single-stim	s648	False	1
426.94	0.857	427.797	2.7854845275976223	draw_card	0.857	columbia_card_task_fmri	15.0	0.875	89.0	-95.0	0.125	10.0	3.0	1.0	2.052962678811454	0.857	n/a	stim	poldrack-single-stim	s648	False	1
427.801	1.126	428.927	0.8211988133119088	end_round	1.126	columbia_card_task_fmri	15.0	0.8571428571428572	71.0	-95.0	0.1428571428571428	10.0	4.0	1.0	4.16408730642425	1.126	3.0	stim	poldrack-single-stim	s648	False	1
429.682	1.5	428.931	n/a	-1.0	2.318	columbia_card_task_fmri	n/a	n/a	-1.0	n/a	n/a	n/a	n/a	n/a	n/a	n/a	n/a	ITI	poldrack-single-stim	s648	False	0
431.256	1.105	432.361	1.335484527597623	draw_card	1.105	columbia_card_task_fmri	16.0	0.8	89.0	-65.0	0.2	10.0	1.0	2.0	-1.9221441669133623	1.105	n/a	stim	poldrack-single-stim	s648	False	1
432.365	1.377	433.742	-0.4645154724023759	draw_card	1.377	columbia_card_task_fmri	16.0	0.7777777777777778	89.0	-65.0	0.2222222222222222	10.0	2.0	2.0	-0.6486029547195642	1.377	n/a	stim	poldrack-single-stim	s648	False	1
433.747	1.548	435.295	-2.7145154724023777	end_round	1.548	columbia_card_task_fmri	16.0	0.75	71.0	-65.0	0.25	10.0	3.0	2.0	0.7491150690372308	1.548	2.0	stim	poldrack-single-stim	s648	False	1
436.05	1.5	435.299	n/a	-1.0	2.25	columbia_card_task_fmri	n/a	n/a	-1.0	n/a	n/a	n/a	n/a	n/a	n/a	n/a	n/a	ITI	poldrack-single-stim	s648	False	0
437.555	1.492	439.047	0.0354845275976223	end_round	1.492	columbia_card_task_fmri	7.0	0.9166666666666666	71.0	-95.0	0.0833333333333333	12.0	1.0	1.0	-6.125412163208956	1.492	0.0	stim	poldrack-single-stim	s648	False	1
439.802	1.5	439.051	n/a	-1.0	2.25	columbia_card_task_fmri	n/a	n/a	-1.0	n/a	n/a	n/a	n/a	n/a	n/a	n/a	n/a	ITI	poldrack-single-stim	s648	False	0
441.307	1.16	442.467	0.7021511942642902	draw_card	1.16	columbia_card_task_fmri	14.0	0.8333333333333334	89.0	-75.0	0.1666666666666666	12.0	1.0	2.0	-1.154643958755166	1.16	n/a	stim	poldrack-single-stim	s648	False	1
442.471	1.328	443.799	-0.6463336542205611	draw_card	1.328	columbia_card_task_fmri	14.0	0.8181818181818181	89.0	-75.0	0.1818181818181818	12.0	2.0	2.0	0.0026368644059502	1.328	n/a	stim	poldrack-single-stim	s648	False	1
443.803	0.646	444.449	-2.2645154724023766	draw_card	0.646	columbia_card_task_fmri	14.0	0.8	89.0	-75.0	0.2	12.0	3.0	2.0	1.2745903403132388	0.646	n/a	stim	poldrack-single-stim	s648	False	1
444.453	0.461	444.914	-4.242293250180152	end_round	0.461	columbia_card_task_fmri	14.0	0.7777777777777778	71.0	-75.0	0.2222222222222222	12.0	4.0	2.0	2.674172501422809	0.461	3.0	stim	poldrack-single-stim	s648	False	1
445.67	1.5	444.919	n/a	-1.0	2.386	columbia_card_task_fmri	n/a	n/a	-1.0	n/a	n/a	n/a	n/a	n/a	n/a	n/a	n/a	ITI	poldrack-single-stim	s648	False	0
447.31	1.127	448.437	2.3688178609309563	draw_card	1.127	columbia_card_task_fmri	15.0	0.8333333333333334	89.0	-70.0	0.1666666666666666	12.0	1.0	2.0	-2.6436862088167388	1.127	n/a	stim	poldrack-single-stim	s648	False	1
448.441	1.247	449.688	1.0809390730521655	draw_card	1.247	columbia_card_task_fmri	15.0	0.8181818181818181	89.0	-70.0	0.1818181818181818	12.0	2.0	2.0	-1.538528003414278	1.247	n/a	stim	poldrack-single-stim	s648	False	1
449.692	1.797	451.489	-0.4645154724023776	draw_card	1.797	columbia_card_task_fmri	15.0	0.8	89.0	-70.0	0.2	12.0	3.0	2.0	-0.3238536309391122	1.797	n/a	stim	poldrack-single-stim	s648	False	1
451.493	0.91	452.403	-2.353404361291267	end_round	0.91	columbia_card_task_fmri	15.0	0.7777777777777778	71.0	-70.0	0.2222222222222222	12.0	4.0	2.0	1.0127109434066384	0.91	3.0	stim	poldrack-single-stim	s648	False	1
453.158	1.5	452.407	n/a	-1.0	2.386	columbia_card_task_fmri	n/a	n/a	-1.0	n/a	n/a	n/a	n/a	n/a	n/a	n/a	n/a	ITI	poldrack-single-stim	s648	False	0
454.798	2.192	456.99	0.335484527597623	draw_card	2.192	columbia_card_task_fmri	16.0	0.8	89.0	-70.0	0.2	15.0	1.0	3.0	0.0757438119486835	2.192	n/a	stim	poldrack-single-stim	s648	False	1
456.993	1.348	458.341	-0.8930869009738065	draw_card	1.348	columbia_card_task_fmri	16.0	0.7857142857142857	89.0	-70.0	0.2142857142857142	15.0	2.0	3.0	0.9629103665429212	1.348	n/a	stim	poldrack-single-stim	s648	False	1
458.345	1.805	460.15	-2.3106693185562244	draw_card	1.805	columbia_card_task_fmri	16.0	0.7692307692307692	89.0	-70.0	0.2307692307692307	15.0	3.0	3.0	1.907965571890777	1.805	3.0	stim	poldrack-single-stim	s648	False	0
460.906	1.5	460.155	n/a	-1.0	2.726	columbia_card_task_fmri	n/a	n/a	-1.0	n/a	n/a	n/a	n/a	n/a	n/a	n/a	n/a	ITI	poldrack-single-stim	s648	False	0
462.887	0.902	463.789	0.7229845275976223	draw_card	0.902	columbia_card_task_fmri	14.0	0.8125	89.0	-65.0	0.1875	16.0	1.0	3.0	-3.4856227584444817	0.902	n/a	stim	poldrack-single-stim	s648	False	1
463.793	1.261	465.054	-0.2645154724023766	draw_card	1.261	columbia_card_task_fmri	14.0	0.8	89.0	-65.0	0.2	16.0	2.0	3.0	-2.721224629618621	1.261	2.0	stim	poldrack-single-stim	s648	False	0
465.809	1.5	465.058	n/a	-1.0	2.454	columbia_card_task_fmri	n/a	n/a	-1.0	n/a	n/a	n/a	n/a	n/a	n/a	n/a	n/a	ITI	poldrack-single-stim	s648	False	0
467.519	0.729	468.248	0.4729845275976223	draw_card	0.729	columbia_card_task_fmri	16.0	0.8125	89.0	-75.0	0.1875	16.0	1.0	3.0	1.193092401608716	0.729	n/a	stim	poldrack-single-stim	s648	False	1
468.253	1.706	469.959	-0.664515472402377	end_round	1.706	columbia_card_task_fmri	16.0	0.8	71.0	-75.0	0.2	16.0	2.0	3.0	2.07386355312444	1.706	1.0	stim	poldrack-single-stim	s648	False	1
470.714	1.5	469.963	n/a	-1.0	2.318	columbia_card_task_fmri	n/a	n/a	-1.0	n/a	n/a	n/a	n/a	n/a	n/a	n/a	n/a	ITI	poldrack-single-stim	s648	False	0
472.288	1.588	473.876	4.735484527597624	draw_card	1.588	columbia_card_task_fmri	16.0	0.8666666666666667	89.0	-80.0	0.1333333333333333	15.0	1.0	2.0	-1.6886794327815269	1.588	n/a	stim	poldrack-single-stim	s648	False	1
473.881	0.196	474.077	3.821198813311911	draw_card	0.196	columbia_card_task_fmri	16.0	0.8571428571428572	89.0	-80.0	0.1428571428571428	15.0	2.0	2.0	-0.730432020016174	0.196	n/a	stim	poldrack-single-stim	s648	False	1
474.081	1.27	475.351	2.7662537583668523	end_round	1.27	columbia_card_task_fmri	16.0	0.8461538461538461	71.0	-80.0	0.1538461538461538	15.0	3.0	2.0	0.3124261390989176	1.27	2.0	stim	poldrack-single-stim	s648	False	1
476.106	1.5	475.355	n/a	-1.0	2.318	columbia_card_task_fmri	n/a	n/a	-1.0	n/a	n/a	n/a	n/a	n/a	n/a	n/a	n/a	ITI	poldrack-single-stim	s648	False	0
477.68	1.254	478.934	5.602151194264291	draw_card	1.254	columbia_card_task_fmri	17.0	0.8666666666666667	89.0	-80.0	0.1333333333333333	15.0	1.0	2.0	-1.349116598659755	1.254	n/a	stim	poldrack-single-stim	s648	False	1
478.938	1.196	480.134	4.678341670454769	draw_card	1.196	columbia_card_task_fmri	17.0	0.8571428571428572	89.0	-80.0	0.1428571428571428	15.0	2.0	2.0	-0.3808661302987772	1.196	n/a	stim	poldrack-single-stim	s648	False	1
480.139	1.17	481.309	3.612407604520699	end_round	1.17	columbia_card_task_fmri	17.0	0.8461538461538461	71.0	-80.0	0.1538461538461538	15.0	3.0	2.0	0.6728769894197413	1.17	2.0	stim	poldrack-single-stim	s648	False	1
482.065	1.5	481.314	n/a	-1.0	2.59	columbia_card_task_fmri	n/a	n/a	-1.0	n/a	n/a	n/a	n/a	n/a	n/a	n/a	n/a	ITI	poldrack-single-stim	s648	False	0
483.911	1.923	485.834	1.5354845275976223	end_round	1.923	columbia_card_task_fmri	1.0	0.9375	71.0	-15.0	0.0625	16.0	1.0	1.0	-30.192249374634397	1.923	0.0	stim	poldrack-single-stim	s648	False	1
486.59	1.5	485.839	n/a	-1.0	2.726	columbia_card_task_fmri	n/a	n/a	-1.0	n/a	n/a	n/a	n/a	n/a	n/a	n/a	n/a	ITI	poldrack-single-stim	s648	False	0
488.572	2.481	491.053	4.660484527597623	end_round	2.481	columbia_card_task_fmri	10.0	0.9375	71.0	-100.0	0.0625	16.0	1.0	1.0	-7.687511089409696	2.481	0.0	stim	poldrack-single-stim	s648	False	1
491.808	1.5	491.057	n/a	-1.0	2.522	columbia_card_task_fmri	n/a	n/a	-1.0	n/a	n/a	n/a	n/a	n/a	n/a	n/a	n/a	ITI	poldrack-single-stim	s648	False	0
493.585	1.737	495.322	5.285484527597623	draw_card	1.737	columbia_card_task_fmri	15.0	0.875	89.0	-75.0	0.125	16.0	1.0	2.0	-4.554226430899732	1.737	n/a	stim	poldrack-single-stim	s648	False	1
495.327	1.114	496.441	4.535484527597623	draw_card	1.114	columbia_card_task_fmri	15.0	0.8666666666666667	89.0	-75.0	0.1333333333333333	16.0	2.0	2.0	-3.725883243180349	1.114	n/a	stim	poldrack-single-stim	s648	False	1
496.445	0.576	497.021	3.6783416704547673	end_round	0.576	columbia_card_task_fmri	15.0	0.8571428571428572	71.0	-75.0	0.1428571428571428	16.0	3.0	2.0	-2.827659077116575	0.576	2.0	stim	poldrack-single-stim	s648	False	1
497.777	1.5	497.026	n/a	-1.0	3.134	columbia_card_task_fmri	n/a	n/a	-1.0	n/a	n/a	n/a	n/a	n/a	n/a	n/a	n/a	ITI	poldrack-single-stim	s648	False	0
500.167	2.766	502.933	5.535484527597623	draw_card	2.766	columbia_card_task_fmri	16.0	0.875	89.0	-80.0	0.125	16.0	1.0	2.0	-2.5723836846093846	2.766	n/a	stim	poldrack-single-stim	s648	False	1
502.937	1.354	504.291	4.735484527597624	draw_card	1.354	columbia_card_task_fmri	16.0	0.8666666666666667	89.0	-80.0	0.1333333333333333	16.0	2.0	2.0	-1.6886794327815269	1.354	n/a	stim	poldrack-single-stim	s648	False	1
504.296	1.058	505.354	3.821198813311911	draw_card	1.058	columbia_card_task_fmri	16.0	0.8571428571428572	89.0	-80.0	0.1428571428571428	16.0	3.0	2.0	-0.730432020016174	1.058	3.0	stim	poldrack-single-stim	s648	False	0
506.11	1.5	505.359	n/a	-1.0	2.386	columbia_card_task_fmri	n/a	n/a	-1.0	n/a	n/a	n/a	n/a	n/a	n/a	n/a	n/a	ITI	poldrack-single-stim	s648	False	0
507.751	1.449	509.2	2.7229845275976223	end_round	1.449	columbia_card_task_fmri	4.0	0.6875	71.0	-5.0	0.3125	16.0	1.0	5.0	-29.913279708580564	1.449	0.0	stim	poldrack-single-stim	s648	False	1
509.956	1.5	509.205	n/a	-1.0	2.386	columbia_card_task_fmri	n/a	n/a	-1.0	n/a	n/a	n/a	n/a	n/a	n/a	n/a	n/a	ITI	poldrack-single-stim	s648	False	0
511.598	1.732	513.33	-0.1311821390690419	draw_card	1.732	columbia_card_task_fmri	14.0	0.8333333333333334	89.0	-80.0	0.1666666666666666	6.0	1.0	1.0	0.7068583861948667	1.732	n/a	stim	poldrack-single-stim	s648	False	1
513.334	2.077	515.411	-3.2645154724023766	end_round	2.077	columbia_card_task_fmri	14.0	0.8	71.0	-80.0	0.2	6.0	2.0	1.0	3.2728312861136644	2.077	1.0	stim	poldrack-single-stim	s648	False	1
516.168	1.5	515.417	n/a	-1.0	2.318	columbia_card_task_fmri	n/a	n/a	-1.0	n/a	n/a	n/a	n/a	n/a	n/a	n/a	n/a	ITI	poldrack-single-stim	s648	False	0
517.74	1.163	518.903	1.5354845275976223	draw_card	1.163	columbia_card_task_fmri	15.0	0.8333333333333334	89.0	-75.0	0.1666666666666666	6.0	1.0	1.0	-0.7823602427058987	1.163	n/a	stim	poldrack-single-stim	s648	False	1
518.908	0.775	519.683	-1.4645154724023777	draw_card	0.775	columbia_card_task_fmri	15.0	0.8	89.0	-75.0	0.2	6.0	2.0	1.0	1.674222914512626	0.775	n/a	stim	poldrack-single-stim	s648	False	1
519.686	0.466	520.152	-5.964515472402377	end_round	0.466	columbia_card_task_fmri	15.0	0.75	71.0	-75.0	0.25	6.0	3.0	1.0	4.642872691897786	0.466	2.0	stim	poldrack-single-stim	s648	False	1
520.908	1.5	520.157	n/a	-1.0	2.318	columbia_card_task_fmri	n/a	n/a	-1.0	n/a	n/a	n/a	n/a	n/a	n/a	n/a	n/a	ITI	poldrack-single-stim	s648	False	0
522.48	1.38	523.86	3.20215119426429	draw_card	1.38	columbia_card_task_fmri	16.0	0.8333333333333334	89.0	-70.0	0.1666666666666666	6.0	1.0	1.0	-2.2714401831116504	1.38	1.0	stim	poldrack-single-stim	s648	False	0
524.616	1.5	523.865	n/a	-1.0	2.862	columbia_card_task_fmri	n/a	n/a	-1.0	n/a	n/a	n/a	n/a	n/a	n/a	n/a	n/a	ITI	poldrack-single-stim	s648	False	0
526.732	2.591	529.323	3.7854845275976223	draw_card	2.591	columbia_card_task_fmri	23.0	0.75	89.0	-60.0	0.25	8.0	1.0	2.0	1.6143317153125096	2.591	n/a	stim	poldrack-single-stim	s648	False	1
529.329	0.239	529.568	0.8211988133119106	draw_card	0.239	columbia_card_task_fmri	23.0	0.7142857142857143	89.0	-60.0	0.2857142857142857	8.0	2.0	2.0	3.168496461569326	0.239	n/a	stim	poldrack-single-stim	s648	False	1
529.572	2.14	531.712	-3.131182139069042	end_round	2.14	columbia_card_task_fmri	23.0	0.6666666666666667	71.0	-60.0	0.3333333333333333	8.0	3.0	2.0	4.798184719075316	2.14	2.0	stim	poldrack-single-stim	s648	False	1
532.467	1.5	531.716	n/a	-1.0	2.726	columbia_card_task_fmri	n/a	n/a	-1.0	n/a	n/a	n/a	n/a	n/a	n/a	n/a	n/a	ITI	poldrack-single-stim	s648	False	0
534.449	1.129	535.578	4.285484527597623	draw_card	1.129	columbia_card_task_fmri	27.0	0.75	89.0	-70.0	0.25	8.0	1.0	2.0	7.671781013578666	1.129	1.0	stim	poldrack-single-stim	s648	False	0
536.334	1.5	535.583	n/a	-1.0	2.25	columbia_card_task_fmri	n/a	n/a	-1.0	n/a	n/a	n/a	n/a	n/a	n/a	n/a	n/a	ITI	poldrack-single-stim	s648	False	0
537.839	2.247	540.086	-0.4645154724023759	draw_card	2.247	columbia_card_task_fmri	16.0	0.7777777777777778	89.0	-65.0	0.2222222222222222	9.0	1.0	2.0	-0.6486029547195642	2.247	n/a	stim	poldrack-single-stim	s648	False	1
540.091	1.604	541.695	-2.7145154724023777	draw_card	1.604	columbia_card_task_fmri	16.0	0.75	89.0	-65.0	0.25	9.0	2.0	2.0	0.7491150690372308	1.604	n/a	stim	poldrack-single-stim	s648	False	1
541.699	0.551	542.25	-5.607372615259518	end_round	0.551	columbia_card_task_fmri	16.0	0.7142857142857143	71.0	-65.0	0.2857142857142857	9.0	3.0	2.0	2.2657638526756188	0.551	2.0	stim	poldrack-single-stim	s648	False	1
543.006	1.5	542.255	n/a	-1.0	2.318	columbia_card_task_fmri	n/a	n/a	-1.0	n/a	n/a	n/a	n/a	n/a	n/a	n/a	n/a	ITI	poldrack-single-stim	s648	False	0
544.58	0.902	545.482	4.735484527597624	draw_card	0.902	columbia_card_task_fmri	13.0	0.9	89.0	-85.0	0.1	10.0	1.0	1.0	-4.918438366800125	0.902	n/a	stim	poldrack-single-stim	s648	False	1
545.487	2.157	547.644	3.646595638708733	draw_card	2.157	columbia_card_task_fmri	13.0	0.8888888888888888	89.0	-85.0	0.1111111111111111	10.0	2.0	1.0	-3.5218267700029813	2.157	n/a	stim	poldrack-single-stim	s648	False	1
547.648	1.79	549.438	2.2854845275976223	draw_card	1.79	columbia_card_task_fmri	13.0	0.875	89.0	-85.0	0.125	10.0	3.0	1.0	-1.9117023219697489	1.79	n/a	stim	poldrack-single-stim	s648	False	1
549.442	0.48	549.922	0.5354845275976241	end_round	0.48	columbia_card_task_fmri	13.0	0.8571428571428572	71.0	-85.0	0.1428571428571428	10.0	4.0	1.0	-0.0312928799970038	0.48	3.0	stim	poldrack-single-stim	s648	False	1
550.677	1.5	549.926	n/a	-1.0	2.454	columbia_card_task_fmri	n/a	n/a	-1.0	n/a	n/a	n/a	n/a	n/a	n/a	n/a	n/a	ITI	poldrack-single-stim	s648	False	0
552.387	1.615	554.002	-0.2645154724023766	draw_card	1.615	columbia_card_task_fmri	14.0	0.8	89.0	-65.0	0.2	10.0	1.0	2.0	-2.721224629618621	1.615	1.0	stim	poldrack-single-stim	s648	False	0
554.757	1.5	554.006	n/a	-1.0	2.522	columbia_card_task_fmri	n/a	n/a	-1.0	n/a	n/a	n/a	n/a	n/a	n/a	n/a	n/a	ITI	poldrack-single-stim	s648	False	0
556.533	1.451	557.984	1.1354845275976235	draw_card	1.451	columbia_card_task_fmri	17.0	0.8	89.0	-70.0	0.2	10.0	1.0	2.0	0.4753504953769152	1.451	1.0	stim	poldrack-single-stim	s648	False	0
558.741	1.5	557.99	n/a	-1.0	2.318	columbia_card_task_fmri	n/a	n/a	-1.0	n/a	n/a	n/a	n/a	n/a	n/a	n/a	n/a	ITI	poldrack-single-stim	s648	False	0
560.315	1.256	561.571	-0.1311821390690437	draw_card	1.256	columbia_card_task_fmri	13.0	0.8333333333333334	89.0	-75.0	0.1666666666666666	12.0	1.0	2.0	-1.5269187284299832	1.256	n/a	stim	poldrack-single-stim	s648	False	1
561.575	1.299	562.874	-1.4645154724023794	draw_card	1.299	columbia_card_task_fmri	13.0	0.8181818181818181	89.0	-75.0	0.1818181818181818	12.0	2.0	2.0	-0.3826680832759308	1.299	n/a	stim	poldrack-single-stim	s648	False	1
562.879	1.216	564.095	-3.0645154724023773	end_round	1.216	columbia_card_task_fmri	13.0	0.8	71.0	-75.0	0.2	12.0	3.0	2.0	0.8749661049359219	1.216	2.0	stim	poldrack-single-stim	s648	False	1
564.851	1.5	564.1	n/a	-1.0	2.522	columbia_card_task_fmri	n/a	n/a	-1.0	n/a	n/a	n/a	n/a	n/a	n/a	n/a	n/a	ITI	poldrack-single-stim	s648	False	0
566.629	1.626	568.255	1.535484527597624	draw_card	1.626	columbia_card_task_fmri	14.0	0.8333333333333334	89.0	-70.0	0.1666666666666666	12.0	1.0	2.0	-3.015921967810403	1.626	n/a	stim	poldrack-single-stim	s648	False	1
568.261	1.632	569.893	0.2627572548703472	draw_card	1.632	columbia_card_task_fmri	14.0	0.8181818181818181	89.0	-70.0	0.1818181818181818	12.0	2.0	2.0	-1.923795248457587	1.632	n/a	stim	poldrack-single-stim	s648	False	1
569.899	0.197	570.096	-1.2645154724023766	draw_card	0.197	columbia_card_task_fmri	14.0	0.8	89.0	-70.0	0.2	12.0	3.0	2.0	-0.7234415039430075	0.197	n/a	stim	poldrack-single-stim	s648	False	1
570.101	0.723	570.824	-3.131182139069044	end_round	0.723	columbia_card_task_fmri	14.0	0.7777777777777778	71.0	-70.0	0.2222222222222222	12.0	4.0	2.0	0.5973678033431398	0.723	3.0	stim	poldrack-single-stim	s648	False	1
571.581	1.5	570.83	n/a	-1.0	2.998	columbia_card_task_fmri	n/a	n/a	-1.0	n/a	n/a	n/a	n/a	n/a	n/a	n/a	n/a	ITI	poldrack-single-stim	s648	False	0
573.835	1.858	575.693	1.535484527597624	draw_card	1.858	columbia_card_task_fmri	16.0	0.8333333333333334	89.0	-80.0	0.1666666666666666	12.0	1.0	2.0	1.451514301779568	1.858	n/a	stim	poldrack-single-stim	s648	False	1
575.699	2.227	577.926	0.0809390730521655	draw_card	2.227	columbia_card_task_fmri	16.0	0.8181818181818181	89.0	-80.0	0.1818181818181818	12.0	2.0	2.0	2.699998490761409	2.227	n/a	stim	poldrack-single-stim	s648	False	1
577.932	3.082	581.014	-1.664515472402377	end_round	3.082	columbia_card_task_fmri	16.0	0.8	71.0	-80.0	0.2	12.0	3.0	2.0	4.072178906703179	3.082	2.0	stim	poldrack-single-stim	s648	False	1
581.772	1.5	581.021	n/a	-1.0	2.318	columbia_card_task_fmri	n/a	n/a	-1.0	n/a	n/a	n/a	n/a	n/a	n/a	n/a	n/a	ITI	poldrack-single-stim	s648	False	0
583.346	1.275	584.621	1.335484527597623	draw_card	1.275	columbia_card_task_fmri	16.0	0.8	89.0	-65.0	0.2	15.0	1.0	3.0	-1.9221441669133623	1.275	n/a	stim	poldrack-single-stim	s648	False	1
584.627	1.546	586.173	0.1783416704547664	end_round	1.546	columbia_card_task_fmri	16.0	0.7857142857142857	71.0	-65.0	0.2142857142857142	15.0	2.0	3.0	-1.0866601159930198	1.546	1.0	stim	poldrack-single-stim	s648	False	1
586.93	1.5	586.179	n/a	-1.0	2.25	columbia_card_task_fmri	n/a	n/a	-1.0	n/a	n/a	n/a	n/a	n/a	n/a	n/a	n/a	ITI	poldrack-single-stim	s648	False	0
588.436	1.381	589.817	-0.3395154724023776	draw_card	1.381	columbia_card_task_fmri	15.0	0.8125	89.0	-75.0	0.1875	16.0	1.0	3.0	0.8031482825791301	1.381	n/a	stim	poldrack-single-stim	s648	False	1
589.822	1.67	591.492	-1.4645154724023777	end_round	1.67	columbia_card_task_fmri	15.0	0.8	71.0	-75.0	0.2	16.0	2.0	3.0	1.674222914512626	1.67	1.0	stim	poldrack-single-stim	s648	False	1
592.249	1.5	591.498	n/a	-1.0	2.454	columbia_card_task_fmri	n/a	n/a	-1.0	n/a	n/a	n/a	n/a	n/a	n/a	n/a	n/a	ITI	poldrack-single-stim	s648	False	0
593.96	0.623	594.583	0.2229845275976223	draw_card	0.623	columbia_card_task_fmri	14.0	0.6875	89.0	-35.0	0.3125	16.0	1.0	5.0	-11.59455520959652	0.623	1.0	stim	poldrack-single-stim	s648	False	0
595.339	1.5	594.588	n/a	-1.0	2.318	columbia_card_task_fmri	n/a	n/a	-1.0	n/a	n/a	n/a	n/a	n/a	n/a	n/a	n/a	ITI	poldrack-single-stim	s648	False	0
596.914	0.865	597.779	5.40215119426429	draw_card	0.865	columbia_card_task_fmri	16.0	0.8666666666666667	89.0	-75.0	0.1333333333333333	15.0	1.0	2.0	-3.3863712493509404	0.865	1.0	stim	poldrack-single-stim	s648	False	0
598.536	1.5	597.785	n/a	-1.0	2.318	columbia_card_task_fmri	n/a	n/a	-1.0	n/a	n/a	n/a	n/a	n/a	n/a	n/a	n/a	ITI	poldrack-single-stim	s648	False	0
600.111	0.89	601.001	6.068817860930956	draw_card	0.89	columbia_card_task_fmri	16.0	0.8666666666666667	89.0	-70.0	0.1333333333333333	15.0	1.0	2.0	-5.083833126176966	0.89	n/a	stim	poldrack-single-stim	s648	False	1
601.007	1.303	602.31	5.249770241883338	draw_card	1.303	columbia_card_task_fmri	16.0	0.8571428571428572	89.0	-70.0	0.1428571428571428	15.0	2.0	2.0	-4.225629731082783	1.303	n/a	stim	poldrack-single-stim	s648	False	1
602.316	0.553	602.869	4.304715296828391	end_round	0.553	columbia_card_task_fmri	16.0	0.8461538461538461	71.0	-70.0	0.1538461538461538	15.0	3.0	2.0	-3.2916349884997835	0.553	2.0	stim	poldrack-single-stim	s648	False	1
603.626	1.5	602.875	n/a	-1.0	2.59	columbia_card_task_fmri	n/a	n/a	-1.0	n/a	n/a	n/a	n/a	n/a	n/a	n/a	n/a	ITI	poldrack-single-stim	s648	False	0
605.472	1.903	607.375	3.4104845275976223	end_round	1.903	columbia_card_task_fmri	8.0	0.9375	71.0	-90.0	0.0625	16.0	1.0	1.0	-10.586842567008397	1.903	0.0	stim	poldrack-single-stim	s648	False	1
608.133	1.5	607.382	n/a	-1.0	2.25	columbia_card_task_fmri	n/a	n/a	-1.0	n/a	n/a	n/a	n/a	n/a	n/a	n/a	n/a	ITI	poldrack-single-stim	s648	False	0
609.639	1.633	611.272	4.972984527597623	end_round	1.633	columbia_card_task_fmri	10.0	0.9375	71.0	-95.0	0.0625	16.0	1.0	1.0	-8.895715626086652	1.633	0.0	stim	poldrack-single-stim	s648	False	1
612.03	1.5	611.279	n/a	-1.0	2.25	columbia_card_task_fmri	n/a	n/a	-1.0	n/a	n/a	n/a	n/a	n/a	n/a	n/a	n/a	ITI	poldrack-single-stim	s648	False	0
613.537	1.507	615.044	5.910484527597623	draw_card	1.507	columbia_card_task_fmri	15.0	0.875	89.0	-70.0	0.125	16.0	1.0	2.0	-6.205496161760603	1.507	n/a	stim	poldrack-single-stim	s648	False	1
615.05	1.351	616.401	5.202151194264289	draw_card	1.351	columbia_card_task_fmri	15.0	0.8666666666666667	89.0	-70.0	0.1333333333333333	16.0	2.0	2.0	-5.423294347517775	1.351	n/a	stim	poldrack-single-stim	s648	False	1
616.408	1.891	618.299	4.39262738474048	draw_card	1.891	columbia_card_task_fmri	15.0	0.8571428571428572	89.0	-70.0	0.1428571428571428	16.0	3.0	2.0	-4.575096888942678	1.891	n/a	stim	poldrack-single-stim	s648	False	1
618.304	0.75	619.054	3.458561450674544	end_round	0.75	columbia_card_task_fmri	15.0	0.8461538461538461	71.0	-70.0	0.1538461538461538	16.0	4.0	2.0	-3.651990062616175	0.75	3.0	stim	poldrack-single-stim	s648	False	1
619.811	1.5	619.06	n/a	-1.0	2.522	columbia_card_task_fmri	n/a	n/a	-1.0	n/a	n/a	n/a	n/a	n/a	n/a	n/a	n/a	ITI	poldrack-single-stim	s648	False	0
621.59	1.1	622.69	4.910484527597623	draw_card	1.1	columbia_card_task_fmri	16.0	0.875	89.0	-85.0	0.125	16.0	1.0	2.0	-0.9206241961553444	1.1	n/a	stim	poldrack-single-stim	s648	False	1
622.694	1.268	623.962	4.068817860930956	draw_card	1.268	columbia_card_task_fmri	16.0	0.8666666666666667	89.0	-85.0	0.1333333333333333	16.0	2.0	2.0	0.0092082479510082	1.268	n/a	stim	poldrack-single-stim	s648	False	1
623.967	0.744	624.711	3.1069130990261957	draw_card	0.744	columbia_card_task_fmri	16.0	0.8571428571428572	89.0	-85.0	0.1428571428571428	16.0	3.0	2.0	1.0174688523487276	0.744	n/a	stim	poldrack-single-stim	s648	False	1
624.716	0.943	625.659	1.9970229891360824	draw_card	0.943	columbia_card_task_fmri	16.0	0.8461538461538461	89.0	-85.0	0.1538461538461538	16.0	4.0	2.0	2.114749674213904	0.943	n/a	stim	poldrack-single-stim	s648	False	1
625.663	1.231	626.894	0.7021511942642902	draw_card	1.231	columbia_card_task_fmri	16.0	0.8333333333333334	89.0	-85.0	0.1666666666666666	16.0	5.0	2.0	3.313275233670701	1.231	n/a	stim	poldrack-single-stim	s648	False	1
626.899	0.469	627.368	-0.8281518360387428	end_round	0.469	columbia_card_task_fmri	16.0	0.8181818181818181	71.0	-85.0	0.1818181818181818	16.0	6.0	2.0	4.626897321897694	0.469	5.0	stim	poldrack-single-stim	s648	False	1
628.124	1.5	627.373	n/a	-1.0	2.454	columbia_card_task_fmri	n/a	n/a	-1.0	n/a	n/a	n/a	n/a	n/a	n/a	n/a	n/a	ITI	poldrack-single-stim	s648	False	0
