onset	duration	movement_onset	EV	action	block_duration	experiment_exp_id	gain_amount	gain_probability	key_press	loss_amount	loss_probability	num_cards	num_click_in_round	num_loss_cards	risk	response_time	total_cards	trial_id	trial_type	worker_id	junk	feedback
3.009	1.954	4.963	-0.8287208721511048	draw_card	1.954	columbia_card_task_fmri	12.0	0.8333333333333334	89.0	-70.0	0.1666666666666666	6.0	1.0	1.0	-2.858010705161288	1.954	n/a	stim	poldrack-single-stim	s649	False	1
4.966	2.391	7.357	-3.5620542054844373	draw_card	2.391	columbia_card_task_fmri	12.0	0.8	89.0	-70.0	0.2	6.0	2.0	1.0	-0.6183906906441621	2.391	n/a	stim	poldrack-single-stim	s649	False	1
7.359	3.524	10.883	-7.662054205484439	draw_card	3.524	columbia_card_task_fmri	12.0	0.75	89.0	-70.0	0.25	6.0	3.0	1.0	2.0878351997330995	3.524	n/a	stim	poldrack-single-stim	s649	False	1
10.884	1.521	12.405	-14.49538753881777	draw_card	1.521	columbia_card_task_fmri	12.0	0.6666666666666667	89.0	-70.0	0.3333333333333333	6.0	4.0	1.0	5.235159406079937	1.521	4.0	stim	poldrack-single-stim	s649	False	0
13.158	1.5	12.407	n/a	-1.0	2.454	columbia_card_task_fmri	n/a	n/a	-1.0	n/a	n/a	n/a	n/a	n/a	n/a	n/a	n/a	ITI	poldrack-single-stim	s649	False	0
14.864	1.854	16.718	0.0046124611822291	draw_card	1.854	columbia_card_task_fmri	14.0	0.8333333333333334	89.0	-75.0	0.1666666666666666	6.0	1.0	1.0	-0.2501678321914085	1.854	n/a	stim	poldrack-single-stim	s649	False	1
16.719	1.824	18.543	-2.9620542054844377	draw_card	1.824	columbia_card_task_fmri	14.0	0.8	89.0	-75.0	0.2	6.0	2.0	1.0	2.1807678371069272	1.824	2.0	stim	poldrack-single-stim	s649	False	0
19.3	1.5	18.549	n/a	-1.0	2.454	columbia_card_task_fmri	n/a	n/a	-1.0	n/a	n/a	n/a	n/a	n/a	n/a	n/a	n/a	ITI	poldrack-single-stim	s649	False	0
21.006	0.734	21.74	1.6712791278488952	draw_card	0.734	columbia_card_task_fmri	15.0	0.8333333333333334	89.0	-70.0	0.1666666666666666	6.0	1.0	1.0	-1.7403819638742704	0.734	n/a	stim	poldrack-single-stim	s649	False	1
21.741	0.673	22.414	-1.1620542054844387	end_round	0.673	columbia_card_task_fmri	15.0	0.8	71.0	-70.0	0.2	6.0	2.0	1.0	0.5812317152283768	0.673	1.0	stim	poldrack-single-stim	s649	False	1
23.168	1.5	22.417	n/a	-1.0	2.522	columbia_card_task_fmri	n/a	n/a	-1.0	n/a	n/a	n/a	n/a	n/a	n/a	n/a	n/a	ITI	poldrack-single-stim	s649	False	0
24.94	2.052	26.992	2.504612461182229	draw_card	2.052	columbia_card_task_fmri	17.0	0.8333333333333334	89.0	-75.0	0.1666666666666666	6.0	1.0	1.0	0.8675211634668045	2.052	n/a	stim	poldrack-single-stim	s649	False	1
26.993	0.709	27.702	-0.5620542054844373	draw_card	0.709	columbia_card_task_fmri	17.0	0.8	89.0	-75.0	0.2	6.0	2.0	1.0	3.380446389135031	0.709	n/a	stim	poldrack-single-stim	s649	False	1
27.703	0.742	28.445	-5.162054205484439	end_round	0.742	columbia_card_task_fmri	17.0	0.75	71.0	-75.0	0.25	6.0	3.0	1.0	6.416887889959412	0.742	2.0	stim	poldrack-single-stim	s649	False	1
29.199	1.5	28.448	n/a	-1.0	2.454	columbia_card_task_fmri	n/a	n/a	-1.0	n/a	n/a	n/a	n/a	n/a	n/a	n/a	n/a	ITI	poldrack-single-stim	s649	False	0
30.904	1.906	32.81	3.837945794515561	draw_card	1.906	columbia_card_task_fmri	24.0	0.75	89.0	-60.0	0.25	8.0	1.0	2.0	2.953625282346344	1.906	n/a	stim	poldrack-single-stim	s649	False	1
32.811	1.903	34.714	0.8379457945155613	draw_card	1.903	columbia_card_task_fmri	24.0	0.7142857142857143	89.0	-60.0	0.2857142857142857	8.0	2.0	2.0	4.527489975680275	1.903	n/a	stim	poldrack-single-stim	s649	False	1
34.716	1.458	36.174	-3.1620542054844387	draw_card	1.458	columbia_card_task_fmri	24.0	0.6666666666666667	89.0	-60.0	0.3333333333333333	8.0	3.0	2.0	6.177752277595388	1.458	n/a	stim	poldrack-single-stim	s649	False	1
36.176	1.546	37.722	-8.76205420548444	end_round	1.546	columbia_card_task_fmri	24.0	0.6	71.0	-60.0	0.4	8.0	4.0	2.0	7.7308656297132785	1.546	3.0	stim	poldrack-single-stim	s649	False	1
38.475	1.5	37.724	n/a	-1.0	2.658	columbia_card_task_fmri	n/a	n/a	-1.0	n/a	n/a	n/a	n/a	n/a	n/a	n/a	n/a	ITI	poldrack-single-stim	s649	False	0
40.385	3.402	43.787	3.837945794515561	draw_card	3.402	columbia_card_task_fmri	29.0	0.75	89.0	-75.0	0.25	8.0	1.0	2.0	11.612023752239844	3.402	n/a	stim	poldrack-single-stim	s649	False	1
43.788	1.791	45.579	0.1236600802298495	draw_card	1.791	columbia_card_task_fmri	29.0	0.7142857142857143	89.0	-75.0	0.2857142857142857	8.0	2.0	2.0	13.560790368840271	1.791	n/a	stim	poldrack-single-stim	s649	False	1
45.582	1.44	47.022	-4.828720872151103	draw_card	1.44	columbia_card_task_fmri	29.0	0.6666666666666667	89.0	-75.0	0.3333333333333333	8.0	3.0	2.0	15.604138158519769	1.44	n/a	stim	poldrack-single-stim	s649	False	1
47.023	1.092	48.115	-11.76205420548444	end_round	1.092	columbia_card_task_fmri	29.0	0.6	71.0	-75.0	0.4	8.0	4.0	2.0	17.527184377927696	1.092	3.0	stim	poldrack-single-stim	s649	False	1
48.869	1.5	48.118	n/a	-1.0	2.386	columbia_card_task_fmri	n/a	n/a	-1.0	n/a	n/a	n/a	n/a	n/a	n/a	n/a	n/a	ITI	poldrack-single-stim	s649	False	0
50.506	1.756	52.262	-0.3842764277066584	draw_card	1.756	columbia_card_task_fmri	17.0	0.7777777777777778	89.0	-65.0	0.2222222222222222	9.0	1.0	2.0	0.6718604592841473	1.756	n/a	stim	poldrack-single-stim	s649	False	1
52.264	1.748	54.012	-2.6620542054844387	draw_card	1.748	columbia_card_task_fmri	17.0	0.75	89.0	-65.0	0.25	9.0	2.0	2.0	2.0878351997330995	1.748	n/a	stim	poldrack-single-stim	s649	False	1
54.014	1.962	55.976	-5.590625634055866	draw_card	1.962	columbia_card_task_fmri	17.0	0.7142857142857143	89.0	-65.0	0.2857142857142857	9.0	3.0	2.0	3.624207638994804	1.962	n/a	stim	poldrack-single-stim	s649	False	1
55.977	1.306	57.283	-9.49538753881777	draw_card	1.306	columbia_card_task_fmri	17.0	0.6666666666666667	89.0	-65.0	0.3333333333333333	9.0	4.0	2.0	5.235159406079937	1.306	n/a	stim	poldrack-single-stim	s649	False	1
57.286	0.795	58.081	-14.96205420548444	end_round	0.795	columbia_card_task_fmri	17.0	0.6	71.0	-65.0	0.4	9.0	5.0	2.0	6.751277747643592	0.795	4.0	stim	poldrack-single-stim	s649	False	1
58.835	1.5	58.084	n/a	-1.0	2.522	columbia_card_task_fmri	n/a	n/a	-1.0	n/a	n/a	n/a	n/a	n/a	n/a	n/a	n/a	ITI	poldrack-single-stim	s649	False	0
60.609	2.062	62.671	3.937945794515561	draw_card	2.062	columbia_card_task_fmri	14.0	0.9	89.0	-95.0	0.1	10.0	1.0	1.0	-0.7183579741251691	2.062	n/a	stim	poldrack-single-stim	s649	False	1
62.673	2.603	65.276	2.726834683404449	draw_card	2.603	columbia_card_task_fmri	14.0	0.8888888888888888	89.0	-95.0	0.1111111111111111	10.0	2.0	1.0	0.8365499424073874	2.603	n/a	stim	poldrack-single-stim	s649	False	1
65.279	2.981	68.26	1.2129457945155613	draw_card	2.981	columbia_card_task_fmri	14.0	0.875	89.0	-95.0	0.125	10.0	3.0	1.0	2.6290068429935047	2.981	n/a	stim	poldrack-single-stim	s649	False	1
68.262	1.602	69.864	-0.7334827769130099	draw_card	1.602	columbia_card_task_fmri	14.0	0.8571428571428572	89.0	-95.0	0.1428571428571428	10.0	4.0	1.0	4.72216540539722	1.602	n/a	stim	poldrack-single-stim	s649	False	1
69.866	0.733	70.599	-3.328720872151103	end_round	0.733	columbia_card_task_fmri	14.0	0.8333333333333334	71.0	-95.0	0.1666666666666666	10.0	5.0	1.0	7.20145071723428	0.733	4.0	stim	poldrack-single-stim	s649	False	1
71.352	1.5	70.601	n/a	-1.0	2.59	columbia_card_task_fmri	n/a	n/a	-1.0	n/a	n/a	n/a	n/a	n/a	n/a	n/a	n/a	ITI	poldrack-single-stim	s649	False	0
73.195	1.622	74.817	-0.1620542054844387	draw_card	1.622	columbia_card_task_fmri	15.0	0.8	89.0	-65.0	0.2	10.0	1.0	2.0	-1.41812323599909	1.622	n/a	stim	poldrack-single-stim	s649	False	1
74.819	3.069	77.888	-1.9398319832622155	draw_card	3.069	columbia_card_task_fmri	15.0	0.7777777777777778	89.0	-65.0	0.2222222222222222	10.0	2.0	2.0	-0.1593616214733515	3.069	n/a	stim	poldrack-single-stim	s649	False	1
77.891	2.014	79.905	-4.162054205484439	draw_card	2.014	columbia_card_task_fmri	15.0	0.75	89.0	-65.0	0.25	10.0	3.0	2.0	1.222056878141501	2.014	n/a	stim	poldrack-single-stim	s649	False	1
79.908	1.416	81.324	-7.019197062627293	draw_card	1.416	columbia_card_task_fmri	15.0	0.7142857142857143	89.0	-65.0	0.2857142857142857	10.0	4.0	2.0	2.7209365761843074	1.416	n/a	stim	poldrack-single-stim	s649	False	1
81.327	1.173	82.5	-10.828720872151102	end_round	1.173	columbia_card_task_fmri	15.0	0.6666666666666667	71.0	-65.0	0.3333333333333333	10.0	5.0	2.0	4.292577339163465	1.173	4.0	stim	poldrack-single-stim	s649	False	1
83.254	1.5	82.503	n/a	-1.0	2.386	columbia_card_task_fmri	n/a	n/a	-1.0	n/a	n/a	n/a	n/a	n/a	n/a	n/a	n/a	ITI	poldrack-single-stim	s649	False	0
84.893	2.479	87.372	1.4379457945155627	draw_card	2.479	columbia_card_task_fmri	17.0	0.8	89.0	-65.0	0.2	10.0	1.0	2.0	-0.6183906906441621	2.479	n/a	stim	poldrack-single-stim	s649	False	1
87.374	1.655	89.029	-0.3842764277066584	draw_card	1.655	columbia_card_task_fmri	17.0	0.7777777777777778	89.0	-65.0	0.2222222222222222	10.0	2.0	2.0	0.6718604592841473	1.655	2.0	stim	poldrack-single-stim	s649	False	0
89.782	1.5	89.031	n/a	-1.0	2.59	columbia_card_task_fmri	n/a	n/a	-1.0	n/a	n/a	n/a	n/a	n/a	n/a	n/a	n/a	ITI	poldrack-single-stim	s649	False	0
91.625	0.753	92.378	0.0046124611822291	draw_card	0.753	columbia_card_task_fmri	13.0	0.8333333333333334	89.0	-70.0	0.1666666666666666	12.0	1.0	2.0	-2.4854710446150925	0.753	n/a	stim	poldrack-single-stim	s649	False	1
92.379	0.156	92.535	-1.2529632963935322	draw_card	0.156	columbia_card_task_fmri	13.0	0.8181818181818181	89.0	-70.0	0.1818181818181818	12.0	2.0	2.0	-1.4054751125746847	0.156	n/a	stim	poldrack-single-stim	s649	False	1
92.537	1.627	94.164	-2.7620542054844384	end_round	1.627	columbia_card_task_fmri	13.0	0.8	71.0	-70.0	0.2	12.0	3.0	2.0	-0.2185195867951677	1.627	2.0	stim	poldrack-single-stim	s649	False	1
94.918	1.5	94.167	n/a	-1.0	2.318	columbia_card_task_fmri	n/a	n/a	-1.0	n/a	n/a	n/a	n/a	n/a	n/a	n/a	n/a	ITI	poldrack-single-stim	s649	False	0
96.488	1.603	98.091	0.0046124611822291	draw_card	1.603	columbia_card_task_fmri	15.0	0.8333333333333334	89.0	-80.0	0.1666666666666666	12.0	1.0	2.0	1.985231938708104	1.603	n/a	stim	poldrack-single-stim	s649	False	1
98.093	1.084	99.177	-1.434781478211714	draw_card	1.084	columbia_card_task_fmri	15.0	0.8181818181818181	89.0	-80.0	0.1818181818181818	12.0	2.0	2.0	3.221475526996386	1.084	n/a	stim	poldrack-single-stim	s649	False	1
99.18	0.296	99.476	-3.1620542054844387	draw_card	0.296	columbia_card_task_fmri	15.0	0.8	89.0	-80.0	0.2	12.0	3.0	2.0	4.580145235493035	0.296	n/a	stim	poldrack-single-stim	s649	False	1
99.478	1.706	101.184	-5.273165316595551	draw_card	1.706	columbia_card_task_fmri	15.0	0.7777777777777778	89.0	-80.0	0.2222222222222222	12.0	4.0	2.0	6.075067995398442	1.706	4.0	stim	poldrack-single-stim	s649	False	0
101.937	1.5	101.186	n/a	-1.0	2.25	columbia_card_task_fmri	n/a	n/a	-1.0	n/a	n/a	n/a	n/a	n/a	n/a	n/a	n/a	ITI	poldrack-single-stim	s649	False	0
103.441	1.488	104.929	-0.9620542054844377	draw_card	1.488	columbia_card_task_fmri	14.0	0.8	89.0	-65.0	0.2	15.0	1.0	3.0	-1.817984433056452	1.488	1.0	stim	poldrack-single-stim	s649	False	0
105.682	1.5	104.931	n/a	-1.0	2.454	columbia_card_task_fmri	n/a	n/a	-1.0	n/a	n/a	n/a	n/a	n/a	n/a	n/a	n/a	ITI	poldrack-single-stim	s649	False	0
107.389	3.577	110.966	-1.0370542054844387	end_round	3.577	columbia_card_task_fmri	1.0	0.9375	71.0	-45.0	0.0625	16.0	1.0	1.0	-22.26278029866597	3.577	0.0	stim	poldrack-single-stim	s649	False	1
111.72	1.5	110.969	n/a	-1.0	3.27	columbia_card_task_fmri	n/a	n/a	-1.0	n/a	n/a	n/a	n/a	n/a	n/a	n/a	n/a	ITI	poldrack-single-stim	s649	False	0
114.243	2.436	116.679	-0.0995542054844387	draw_card	2.436	columbia_card_task_fmri	15.0	0.8125	89.0	-70.0	0.1875	16.0	1.0	3.0	-0.2419602500865423	2.436	n/a	stim	poldrack-single-stim	s649	False	1
116.682	2.273	118.955	-1.1620542054844387	draw_card	2.273	columbia_card_task_fmri	15.0	0.8	89.0	-70.0	0.2	16.0	2.0	3.0	0.5812317152283768	2.273	2.0	stim	poldrack-single-stim	s649	False	0
119.709	1.5	118.958	n/a	-1.0	2.25	columbia_card_task_fmri	n/a	n/a	-1.0	n/a	n/a	n/a	n/a	n/a	n/a	n/a	n/a	ITI	poldrack-single-stim	s649	False	0
121.213	1.704	122.917	6.837945794515561	draw_card	1.704	columbia_card_task_fmri	30.0	0.7	89.0	-50.0	0.3	10.0	1.0	3.0	3.2410882089964588	1.704	n/a	stim	poldrack-single-stim	s649	False	1
122.92	0.636	123.556	4.1712791278489005	draw_card	0.636	columbia_card_task_fmri	30.0	0.6666666666666667	89.0	-50.0	0.3333333333333333	10.0	2.0	3.0	4.292577339163465	0.636	2.0	stim	poldrack-single-stim	s649	False	0
124.31	1.5	123.559	n/a	-1.0	2.25	columbia_card_task_fmri	n/a	n/a	-1.0	n/a	n/a	n/a	n/a	n/a	n/a	n/a	n/a	ITI	poldrack-single-stim	s649	False	0
125.811	1.573	127.384	6.237945794515562	draw_card	1.573	columbia_card_task_fmri	17.0	0.8666666666666667	89.0	-70.0	0.1333333333333333	15.0	1.0	2.0	-3.842910704847864	1.573	n/a	stim	poldrack-single-stim	s649	False	1
127.387	1.287	128.674	5.409374365944134	draw_card	1.287	columbia_card_task_fmri	17.0	0.8571428571428572	89.0	-70.0	0.1428571428571428	15.0	2.0	2.0	-2.9739044403573125	1.287	n/a	stim	poldrack-single-stim	s649	False	1
128.677	1.15	129.827	4.453330409900176	end_round	1.15	columbia_card_task_fmri	17.0	0.8461538461538461	71.0	-70.0	0.1538461538461538	15.0	3.0	2.0	-2.0282045716785504	1.15	2.0	stim	poldrack-single-stim	s649	False	1
130.581	1.5	129.83	n/a	-1.0	2.318	columbia_card_task_fmri	n/a	n/a	-1.0	n/a	n/a	n/a	n/a	n/a	n/a	n/a	n/a	ITI	poldrack-single-stim	s649	False	0
132.152	2.518	134.67	1.4629457945155613	draw_card	2.518	columbia_card_task_fmri	7.0	0.9375	89.0	-95.0	0.0625	16.0	1.0	1.0	-8.724608530370393	2.518	n/a	stim	poldrack-single-stim	s649	False	1
134.673	1.168	135.841	1.0379457945155617	draw_card	1.168	columbia_card_task_fmri	7.0	0.9333333333333332	89.0	-95.0	0.0666666666666666	16.0	2.0	1.0	-7.972027602269861	1.168	n/a	stim	poldrack-single-stim	s649	False	1
135.843	0.224	136.067	0.5522315088012757	draw_card	0.224	columbia_card_task_fmri	7.0	0.9285714285714286	89.0	-95.0	0.0714285714285714	16.0	3.0	1.0	-7.146714797464252	0.224	n/a	stim	poldrack-single-stim	s649	False	1
136.07	0.786	136.856	-0.0082080516382854	draw_card	0.786	columbia_card_task_fmri	7.0	0.9230769230769232	89.0	-95.0	0.0769230769230769	16.0	4.0	1.0	-6.236304571194051	0.786	n/a	stim	poldrack-single-stim	s649	False	1
136.859	0.831	137.69	-0.6620542054844387	end_round	0.831	columbia_card_task_fmri	7.0	0.9166666666666666	71.0	-95.0	0.0833333333333333	16.0	5.0	1.0	-5.225331169054623	0.831	4.0	stim	poldrack-single-stim	s649	False	1
138.444	1.5	137.693	n/a	-1.0	2.726	columbia_card_task_fmri	n/a	n/a	-1.0	n/a	n/a	n/a	n/a	n/a	n/a	n/a	n/a	ITI	poldrack-single-stim	s649	False	0
140.424	2.204	142.628	3.0254457945155613	end_round	2.204	columbia_card_task_fmri	9.0	0.9375	71.0	-100.0	0.0625	16.0	1.0	1.0	-7.031090739275918	2.204	0.0	stim	poldrack-single-stim	s649	False	1
143.382	1.5	142.631	n/a	-1.0	2.386	columbia_card_task_fmri	n/a	n/a	-1.0	n/a	n/a	n/a	n/a	n/a	n/a	n/a	n/a	ITI	poldrack-single-stim	s649	False	0
145.02	1.938	146.958	3.962945794515561	draw_card	1.938	columbia_card_task_fmri	15.0	0.875	89.0	-80.0	0.125	16.0	1.0	2.0	-1.9996233950404445	1.938	n/a	stim	poldrack-single-stim	s649	False	1
146.961	1.153	148.114	3.171279127848895	draw_card	1.153	columbia_card_task_fmri	15.0	0.8666666666666667	89.0	-80.0	0.1333333333333333	16.0	2.0	2.0	-1.1244327415331483	1.153	n/a	stim	poldrack-single-stim	s649	False	1
148.117	1.1	149.217	2.266517223086992	draw_card	1.1	columbia_card_task_fmri	15.0	0.8571428571428572	89.0	-80.0	0.1428571428571428	16.0	3.0	2.0	-0.1754582017806569	1.1	n/a	stim	poldrack-single-stim	s649	False	1
149.22	0.683	149.903	1.2225611791309443	draw_card	0.683	columbia_card_task_fmri	15.0	0.8461538461538461	89.0	-80.0	0.1538461538461538	16.0	4.0	2.0	0.8572637402224146	0.683	4.0	stim	poldrack-single-stim	s649	False	0
150.657	1.5	149.906	n/a	-1.0	2.318	columbia_card_task_fmri	n/a	n/a	-1.0	n/a	n/a	n/a	n/a	n/a	n/a	n/a	n/a	ITI	poldrack-single-stim	s649	False	0
152.229	1.938	154.167	6.087945794515561	draw_card	1.938	columbia_card_task_fmri	16.0	0.875	89.0	-70.0	0.125	16.0	1.0	2.0	-4.974924910463169	1.938	1.0	stim	poldrack-single-stim	s649	False	0
154.92	1.5	154.169	n/a	-1.0	2.25	columbia_card_task_fmri	n/a	n/a	-1.0	n/a	n/a	n/a	n/a	n/a	n/a	n/a	n/a	ITI	poldrack-single-stim	s649	False	0
156.424	1.093	157.517	7.400445794515561	draw_card	1.093	columbia_card_task_fmri	30.0	0.6875	89.0	-45.0	0.3125	16.0	1.0	5.0	1.3444354627553707	1.093	1.0	stim	poldrack-single-stim	s649	False	0
158.271	1.5	157.52	n/a	-1.0	2.25	columbia_card_task_fmri	n/a	n/a	-1.0	n/a	n/a	n/a	n/a	n/a	n/a	n/a	n/a	ITI	poldrack-single-stim	s649	False	0
159.774	1.511	161.285	-0.8287208721511048	draw_card	1.511	columbia_card_task_fmri	13.0	0.8333333333333334	89.0	-75.0	0.1666666666666666	6.0	1.0	1.0	-0.6227256060872719	1.511	n/a	stim	poldrack-single-stim	s649	False	1
161.289	0.172	161.461	-3.7620542054844384	draw_card	0.172	columbia_card_task_fmri	13.0	0.8	89.0	-75.0	0.2	6.0	2.0	1.0	1.7808798548234748	0.172	n/a	stim	poldrack-single-stim	s649	False	1
161.462	1.434	162.896	-8.162054205484438	end_round	1.434	columbia_card_task_fmri	13.0	0.75	71.0	-75.0	0.25	6.0	3.0	1.0	4.685237524722268	1.434	2.0	stim	poldrack-single-stim	s649	False	1
163.651	1.5	162.9	n/a	-1.0	2.454	columbia_card_task_fmri	n/a	n/a	-1.0	n/a	n/a	n/a	n/a	n/a	n/a	n/a	n/a	ITI	poldrack-single-stim	s649	False	0
165.358	1.337	166.695	0.8379457945155631	draw_card	1.337	columbia_card_task_fmri	14.0	0.8333333333333334	89.0	-70.0	0.1666666666666666	6.0	1.0	1.0	-2.11292809215189	1.337	n/a	stim	poldrack-single-stim	s649	False	1
166.698	0.16	166.858	-1.9620542054844377	draw_card	0.16	columbia_card_task_fmri	14.0	0.8	89.0	-70.0	0.2	6.0	2.0	1.0	0.1813545845617028	0.16	2.0	stim	poldrack-single-stim	s649	False	0
167.612	1.5	166.861	n/a	-1.0	2.454	columbia_card_task_fmri	n/a	n/a	-1.0	n/a	n/a	n/a	n/a	n/a	n/a	n/a	n/a	ITI	poldrack-single-stim	s649	False	0
169.319	2.67	171.989	0.8379457945155631	draw_card	2.67	columbia_card_task_fmri	16.0	0.8333333333333334	89.0	-80.0	0.1666666666666666	6.0	1.0	1.0	2.3578066843192147	2.67	n/a	stim	poldrack-single-stim	s649	False	1
171.992	0.763	172.755	-2.362054205484438	end_round	0.763	columbia_card_task_fmri	16.0	0.8	71.0	-80.0	0.2	6.0	2.0	1.0	4.98004903211519	0.763	1.0	stim	poldrack-single-stim	s649	False	1
173.509	1.5	172.758	n/a	-1.0	2.522	columbia_card_task_fmri	n/a	n/a	-1.0	n/a	n/a	n/a	n/a	n/a	n/a	n/a	n/a	ITI	poldrack-single-stim	s649	False	0
175.284	1.761	177.045	3.337945794515563	draw_card	1.761	columbia_card_task_fmri	17.0	0.8333333333333334	89.0	-70.0	0.1666666666666666	6.0	1.0	1.0	-0.9952806176188886	1.761	n/a	stim	poldrack-single-stim	s649	False	1
177.048	0.569	177.617	0.4379457945155627	end_round	0.569	columbia_card_task_fmri	17.0	0.8	71.0	-70.0	0.2	6.0	2.0	1.0	1.380994446553366	0.569	1.0	stim	poldrack-single-stim	s649	False	1
178.371	1.5	177.62	n/a	-1.0	2.386	columbia_card_task_fmri	n/a	n/a	-1.0	n/a	n/a	n/a	n/a	n/a	n/a	n/a	n/a	ITI	poldrack-single-stim	s649	False	0
180.012	2.668	182.68	3.3379457945155613	draw_card	2.668	columbia_card_task_fmri	25.0	0.75	89.0	-65.0	0.25	8.0	1.0	2.0	5.551058259524233	2.668	n/a	stim	poldrack-single-stim	s649	False	1
182.683	0.138	182.821	0.1236600802298495	draw_card	0.138	columbia_card_task_fmri	25.0	0.7142857142857143	89.0	-65.0	0.2857142857142857	8.0	2.0	2.0	7.237397116495352	0.138	n/a	stim	poldrack-single-stim	s649	False	1
182.824	1.03	183.854	-4.162054205484435	end_round	1.03	columbia_card_task_fmri	25.0	0.6666666666666667	71.0	-65.0	0.3333333333333333	8.0	3.0	2.0	9.005588519684693	1.03	2.0	stim	poldrack-single-stim	s649	False	1
184.607	1.5	183.856	n/a	-1.0	2.454	columbia_card_task_fmri	n/a	n/a	-1.0	n/a	n/a	n/a	n/a	n/a	n/a	n/a	n/a	ITI	poldrack-single-stim	s649	False	0
186.315	1.752	188.067	3.3379457945155613	draw_card	1.752	columbia_card_task_fmri	30.0	0.75	89.0	-80.0	0.25	8.0	1.0	2.0	14.209674835576196	1.752	n/a	stim	poldrack-single-stim	s649	False	1
188.069	0.918	188.987	-0.5906256340558622	end_round	0.918	columbia_card_task_fmri	30.0	0.7142857142857143	71.0	-80.0	0.2857142857142857	8.0	2.0	2.0	16.270906578063055	0.918	1.0	stim	poldrack-single-stim	s649	False	1
189.742	1.5	188.991	n/a	-1.0	2.522	columbia_card_task_fmri	n/a	n/a	-1.0	n/a	n/a	n/a	n/a	n/a	n/a	n/a	n/a	ITI	poldrack-single-stim	s649	False	0
191.518	2.293	193.811	3.0379457945155623	end_round	2.293	columbia_card_task_fmri	13.0	0.9	71.0	-95.0	0.1	10.0	1.0	1.0	-1.0182586134484453	2.293	0.0	stim	poldrack-single-stim	s649	False	1
194.565	1.5	193.814	n/a	-1.0	2.522	columbia_card_task_fmri	n/a	n/a	-1.0	n/a	n/a	n/a	n/a	n/a	n/a	n/a	n/a	ITI	poldrack-single-stim	s649	False	0
196.34	1.426	197.766	4.437945794515561	draw_card	1.426	columbia_card_task_fmri	14.0	0.9	89.0	-90.0	0.1	10.0	1.0	1.0	-2.217842072963993	1.426	1.0	stim	poldrack-single-stim	s649	False	0
198.52	1.5	197.769	n/a	-1.0	2.59	columbia_card_task_fmri	n/a	n/a	-1.0	n/a	n/a	n/a	n/a	n/a	n/a	n/a	n/a	ITI	poldrack-single-stim	s649	False	0
200.363	1.583	201.946	-0.362054205484438	draw_card	1.583	columbia_card_task_fmri	16.0	0.8	89.0	-70.0	0.2	10.0	1.0	2.0	0.9811117020354416	1.583	n/a	stim	poldrack-single-stim	s649	False	1
201.949	0.696	202.645	-2.273165316595549	end_round	0.696	columbia_card_task_fmri	16.0	0.7777777777777778	71.0	-70.0	0.2222222222222222	10.0	2.0	2.0	2.3343405131057158	0.696	1.0	stim	poldrack-single-stim	s649	False	1
203.4	1.5	202.649	n/a	-1.0	2.454	columbia_card_task_fmri	n/a	n/a	-1.0	n/a	n/a	n/a	n/a	n/a	n/a	n/a	n/a	ITI	poldrack-single-stim	s649	False	0
205.108	1.941	207.049	-1.0787208721511048	end_round	1.941	columbia_card_task_fmri	7.0	0.9166666666666666	71.0	-100.0	0.0833333333333333	12.0	1.0	1.0	-3.843985738240999	1.941	0.0	stim	poldrack-single-stim	s649	False	1
207.803	1.5	207.052	n/a	-1.0	2.318	columbia_card_task_fmri	n/a	n/a	-1.0	n/a	n/a	n/a	n/a	n/a	n/a	n/a	n/a	ITI	poldrack-single-stim	s649	False	0
209.375	1.711	211.086	-0.828720872151103	draw_card	1.711	columbia_card_task_fmri	14.0	0.8333333333333334	89.0	-80.0	0.1666666666666666	12.0	1.0	2.0	1.6126593889867564	1.711	n/a	stim	poldrack-single-stim	s649	False	1
211.089	1.107	212.196	-2.252963296393532	draw_card	1.107	columbia_card_task_fmri	14.0	0.8181818181818181	89.0	-80.0	0.1818181818181818	12.0	2.0	2.0	2.8358828098130857	1.107	n/a	stim	poldrack-single-stim	s649	False	1
212.199	0.811	213.01	-3.9620542054844377	end_round	0.811	columbia_card_task_fmri	14.0	0.8	71.0	-80.0	0.2	12.0	3.0	2.0	4.180243484997128	0.811	2.0	stim	poldrack-single-stim	s649	False	1
213.765	1.5	213.014	n/a	-1.0	2.25	columbia_card_task_fmri	n/a	n/a	-1.0	n/a	n/a	n/a	n/a	n/a	n/a	n/a	n/a	ITI	poldrack-single-stim	s649	False	0
215.269	1.683	216.952	0.8379457945155613	draw_card	1.683	columbia_card_task_fmri	15.0	0.8333333333333334	89.0	-75.0	0.1666666666666666	12.0	1.0	2.0	0.1223926120483156	1.683	1.0	stim	poldrack-single-stim	s649	False	0
217.707	1.5	216.956	n/a	-1.0	2.658	columbia_card_task_fmri	n/a	n/a	-1.0	n/a	n/a	n/a	n/a	n/a	n/a	n/a	n/a	ITI	poldrack-single-stim	s649	False	0
219.618	1.927	221.545	-0.1620542054844387	end_round	1.927	columbia_card_task_fmri	15.0	0.8	71.0	-65.0	0.2	15.0	1.0	3.0	-1.41812323599909	1.927	0.0	stim	poldrack-single-stim	s649	False	1
222.3	1.5	221.549	n/a	-1.0	2.454	columbia_card_task_fmri	n/a	n/a	-1.0	n/a	n/a	n/a	n/a	n/a	n/a	n/a	n/a	ITI	poldrack-single-stim	s649	False	0
224.007	1.103	225.11	-0.9120542054844388	draw_card	1.103	columbia_card_task_fmri	14.0	0.8125	89.0	-70.0	0.1875	16.0	1.0	3.0	-0.6321467089291772	1.103	n/a	stim	poldrack-single-stim	s649	False	1
225.114	0.685	225.799	-1.9620542054844377	end_round	0.685	columbia_card_task_fmri	14.0	0.8	71.0	-70.0	0.2	16.0	2.0	3.0	0.1813545845617028	0.685	1.0	stim	poldrack-single-stim	s649	False	1
226.554	1.5	225.803	n/a	-1.0	2.386	columbia_card_task_fmri	n/a	n/a	-1.0	n/a	n/a	n/a	n/a	n/a	n/a	n/a	n/a	ITI	poldrack-single-stim	s649	False	0
228.194	1.666	229.86	-0.9745542054844388	end_round	1.666	columbia_card_task_fmri	11.0	0.6875	71.0	-30.0	0.3125	16.0	1.0	5.0	-14.406619029288471	1.666	0.0	stim	poldrack-single-stim	s649	False	1
230.614	1.5	229.863	n/a	-1.0	2.59	columbia_card_task_fmri	n/a	n/a	-1.0	n/a	n/a	n/a	n/a	n/a	n/a	n/a	n/a	ITI	poldrack-single-stim	s649	False	0
232.458	1.541	233.999	3.837945794515561	draw_card	1.541	columbia_card_task_fmri	15.0	0.8666666666666667	89.0	-75.0	0.1333333333333333	15.0	1.0	2.0	-2.82350227177696	1.541	n/a	stim	poldrack-single-stim	s649	False	1
234.003	1.238	235.241	2.9808029373727054	draw_card	1.238	columbia_card_task_fmri	15.0	0.8571428571428572	89.0	-75.0	0.1428571428571428	15.0	2.0	2.0	-1.924507311274848	1.238	n/a	stim	poldrack-single-stim	s649	False	1
235.244	1.086	236.33	1.9917919483617144	draw_card	1.086	columbia_card_task_fmri	15.0	0.8461538461538461	89.0	-75.0	0.1538461538461538	15.0	3.0	2.0	-0.9461735572037284	1.086	n/a	stim	poldrack-single-stim	s649	False	1
236.334	0.832	237.166	0.8379457945155613	end_round	0.832	columbia_card_task_fmri	15.0	0.8333333333333334	71.0	-75.0	0.1666666666666666	15.0	4.0	2.0	0.1223926120483156	0.832	3.0	stim	poldrack-single-stim	s649	False	1
237.919	1.5	237.168	n/a	-1.0	2.318	columbia_card_task_fmri	n/a	n/a	-1.0	n/a	n/a	n/a	n/a	n/a	n/a	n/a	n/a	ITI	poldrack-single-stim	s649	False	0
239.492	1.503	240.995	5.571279127848896	draw_card	1.503	columbia_card_task_fmri	17.0	0.8666666666666667	89.0	-75.0	0.1333333333333333	15.0	1.0	2.0	-2.1438823290337368	1.503	n/a	stim	poldrack-single-stim	s649	False	1
240.998	1.647	242.645	4.695088651658421	draw_card	1.647	columbia_card_task_fmri	17.0	0.8571428571428572	89.0	-75.0	0.1428571428571428	15.0	2.0	2.0	-1.2248953125755475	1.647	n/a	stim	poldrack-single-stim	s649	False	1
242.648	0.832	243.48	3.684099640669408	end_round	0.832	columbia_card_task_fmri	17.0	0.8461538461538461	71.0	-75.0	0.1538461538461538	15.0	3.0	2.0	-0.2248060533620943	0.832	2.0	stim	poldrack-single-stim	s649	False	1
244.235	1.5	243.484	n/a	-1.0	2.59	columbia_card_task_fmri	n/a	n/a	-1.0	n/a	n/a	n/a	n/a	n/a	n/a	n/a	n/a	ITI	poldrack-single-stim	s649	False	0
246.077	1.203	247.28	1.1504457945155613	end_round	1.203	columbia_card_task_fmri	2.0	0.9375	71.0	-25.0	0.0625	16.0	1.0	1.0	-26.839934972805324	1.203	0.0	stim	poldrack-single-stim	s649	False	1
248.035	1.5	247.284	n/a	-1.0	2.386	columbia_card_task_fmri	n/a	n/a	-1.0	n/a	n/a	n/a	n/a	n/a	n/a	n/a	n/a	ITI	poldrack-single-stim	s649	False	0
249.675	1.157	250.832	3.3379457945155613	end_round	1.157	columbia_card_task_fmri	9.0	0.9375	71.0	-95.0	0.0625	16.0	1.0	1.0	-8.240758827311613	1.157	0.0	stim	poldrack-single-stim	s649	False	1
251.586	1.5	250.835	n/a	-1.0	2.318	columbia_card_task_fmri	n/a	n/a	-1.0	n/a	n/a	n/a	n/a	n/a	n/a	n/a	n/a	ITI	poldrack-single-stim	s649	False	0
253.157	1.313	254.47	4.900445794515561	end_round	1.313	columbia_card_task_fmri	11.0	0.9375	71.0	-100.0	0.0625	16.0	1.0	1.0	-6.547207391991048	1.313	0.0	stim	poldrack-single-stim	s649	False	1
255.226	1.5	254.475	n/a	-1.0	2.318	columbia_card_task_fmri	n/a	n/a	-1.0	n/a	n/a	n/a	n/a	n/a	n/a	n/a	n/a	ITI	poldrack-single-stim	s649	False	0
256.798	1.701	258.499	5.462945794515561	draw_card	1.701	columbia_card_task_fmri	16.0	0.875	89.0	-75.0	0.125	16.0	1.0	2.0	-3.322008147361835	1.701	n/a	stim	poldrack-single-stim	s649	False	1
258.503	1.886	260.389	4.704612461182228	draw_card	1.886	columbia_card_task_fmri	16.0	0.8666666666666667	89.0	-75.0	0.1333333333333333	16.0	2.0	2.0	-2.4836936695735226	1.886	n/a	stim	poldrack-single-stim	s649	False	1
260.393	1.367	261.76	3.837945794515563	draw_card	1.367	columbia_card_task_fmri	16.0	0.8571428571428572	89.0	-75.0	0.1428571428571428	16.0	3.0	2.0	-1.5747026420779555	1.367	n/a	stim	poldrack-single-stim	s649	False	1
261.763	0.67	262.433	2.8379457945155613	end_round	0.67	columbia_card_task_fmri	16.0	0.8461538461538461	71.0	-75.0	0.1538461538461538	16.0	4.0	2.0	-0.5854910954260077	0.67	3.0	stim	poldrack-single-stim	s649	False	1
263.186	1.5	262.435	n/a	-1.0	2.318	columbia_card_task_fmri	n/a	n/a	-1.0	n/a	n/a	n/a	n/a	n/a	n/a	n/a	n/a	ITI	poldrack-single-stim	s649	False	0
264.757	1.803	266.56	5.712945794515561	draw_card	1.803	columbia_card_task_fmri	17.0	0.875	89.0	-80.0	0.125	16.0	1.0	2.0	-1.3384158442955254	1.803	1.0	stim	poldrack-single-stim	s649	False	0
267.315	1.5	266.564	n/a	-1.0	2.386	columbia_card_task_fmri	n/a	n/a	-1.0	n/a	n/a	n/a	n/a	n/a	n/a	n/a	n/a	ITI	poldrack-single-stim	s649	False	0
279.959	2.131	282.09	0.0046124611822291	draw_card	2.131	columbia_card_task_fmri	13.0	0.8333333333333334	89.0	-70.0	0.1666666666666666	6.0	1.0	1.0	-2.4854710446150925	2.131	n/a	stim	poldrack-single-stim	s649	False	1
282.094	1.415	283.509	-2.7620542054844384	draw_card	1.415	columbia_card_task_fmri	13.0	0.8	89.0	-70.0	0.2	6.0	2.0	1.0	-0.2185195867951677	1.415	n/a	stim	poldrack-single-stim	s649	False	1
283.513	0.773	284.286	-6.912054205484439	end_round	0.773	columbia_card_task_fmri	13.0	0.75	71.0	-70.0	0.25	6.0	3.0	1.0	2.5207288240200256	0.773	2.0	stim	poldrack-single-stim	s649	False	1
285.041	1.5	284.29	n/a	-1.0	2.25	columbia_card_task_fmri	n/a	n/a	-1.0	n/a	n/a	n/a	n/a	n/a	n/a	n/a	n/a	ITI	poldrack-single-stim	s649	False	0
286.546	1.731	288.277	0.0046124611822291	draw_card	1.731	columbia_card_task_fmri	15.0	0.8333333333333334	89.0	-80.0	0.1666666666666666	6.0	1.0	1.0	1.985231938708104	1.731	n/a	stim	poldrack-single-stim	s649	False	1
288.279	0.857	289.136	-3.1620542054844387	draw_card	0.857	columbia_card_task_fmri	15.0	0.8	89.0	-80.0	0.2	6.0	2.0	1.0	4.580145235493035	0.857	n/a	stim	poldrack-single-stim	s649	False	1
289.14	1.345	290.485	-7.912054205484439	draw_card	1.345	columbia_card_task_fmri	15.0	0.75	89.0	-80.0	0.25	6.0	3.0	1.0	7.715647786453609	1.345	n/a	stim	poldrack-single-stim	s649	False	1
290.489	0.829	291.318	-15.828720872151102	end_round	0.829	columbia_card_task_fmri	15.0	0.6666666666666667	71.0	-80.0	0.3333333333333333	6.0	4.0	1.0	11.36217572052287	0.829	3.0	stim	poldrack-single-stim	s649	False	1
292.073	1.5	291.322	n/a	-1.0	2.386	columbia_card_task_fmri	n/a	n/a	-1.0	n/a	n/a	n/a	n/a	n/a	n/a	n/a	n/a	ITI	poldrack-single-stim	s649	False	0
293.712	1.175	294.887	1.6712791278488952	draw_card	1.175	columbia_card_task_fmri	16.0	0.8333333333333334	89.0	-75.0	0.1666666666666666	6.0	1.0	1.0	0.4949556386532023	1.175	n/a	stim	poldrack-single-stim	s649	False	1
294.89	1.232	296.122	-1.362054205484438	draw_card	1.232	columbia_card_task_fmri	16.0	0.8	89.0	-75.0	0.2	6.0	2.0	1.0	2.980551184467941	1.232	2.0	stim	poldrack-single-stim	s649	False	0
296.877	1.5	296.126	n/a	-1.0	2.59	columbia_card_task_fmri	n/a	n/a	-1.0	n/a	n/a	n/a	n/a	n/a	n/a	n/a	n/a	ITI	poldrack-single-stim	s649	False	0
298.721	0.628	299.349	2.8379457945155613	draw_card	0.628	columbia_card_task_fmri	21.0	0.75	89.0	-55.0	0.25	8.0	1.0	2.0	-0.5094607702450062	0.628	n/a	stim	poldrack-single-stim	s649	False	1
299.353	2.462	301.815	0.1236600802298477	draw_card	2.462	columbia_card_task_fmri	21.0	0.7142857142857143	89.0	-55.0	0.2857142857142857	8.0	2.0	2.0	0.914431830355511	2.462	n/a	stim	poldrack-single-stim	s649	False	1
301.818	1.3	303.118	-3.495387538817769	draw_card	1.3	columbia_card_task_fmri	21.0	0.6666666666666667	89.0	-55.0	0.3333333333333333	8.0	3.0	2.0	2.4074490293424446	1.3	n/a	stim	poldrack-single-stim	s649	False	1
303.121	0.614	303.735	-8.56205420548444	end_round	0.614	columbia_card_task_fmri	21.0	0.6	71.0	-55.0	0.4	8.0	4.0	2.0	3.8125797668523447	0.614	3.0	stim	poldrack-single-stim	s649	False	1
304.49	1.5	303.739	n/a	-1.0	2.658	columbia_card_task_fmri	n/a	n/a	-1.0	n/a	n/a	n/a	n/a	n/a	n/a	n/a	n/a	ITI	poldrack-single-stim	s649	False	0
306.403	1.4	307.803	4.087945794515561	draw_card	1.4	columbia_card_task_fmri	26.0	0.75	89.0	-65.0	0.25	8.0	1.0	2.0	5.983971999428789	1.4	n/a	stim	poldrack-single-stim	s649	False	1
307.806	0.597	308.403	0.8379457945155648	draw_card	0.597	columbia_card_task_fmri	26.0	0.7142857142857143	89.0	-65.0	0.2857142857142857	8.0	2.0	2.0	7.689056208808175	0.597	n/a	stim	poldrack-single-stim	s649	False	1
308.406	1.498	309.904	-3.4953875388177678	draw_card	1.498	columbia_card_task_fmri	26.0	0.6666666666666667	89.0	-65.0	0.3333333333333333	8.0	3.0	2.0	9.476902133216306	1.498	n/a	stim	poldrack-single-stim	s649	False	1
309.908	1.175	311.083	-9.56205420548444	draw_card	1.175	columbia_card_task_fmri	26.0	0.6	89.0	-65.0	0.4	8.0	4.0	2.0	11.159495201864338	1.175	n/a	stim	poldrack-single-stim	s649	False	1
311.085	1.054	312.139	-18.66205420548444	end_round	1.054	columbia_card_task_fmri	26.0	0.5	71.0	-65.0	0.5	8.0	5.0	2.0	12.078622815633564	1.054	4.0	stim	poldrack-single-stim	s649	False	1
312.894	1.5	312.143	n/a	-1.0	2.386	columbia_card_task_fmri	n/a	n/a	-1.0	n/a	n/a	n/a	n/a	n/a	n/a	n/a	n/a	ITI	poldrack-single-stim	s649	False	0
314.535	1.569	316.104	-0.8287208721511048	draw_card	1.569	columbia_card_task_fmri	15.0	0.7777777777777778	89.0	-60.0	0.2222222222222222	9.0	1.0	2.0	-2.237356808613132	1.569	n/a	stim	poldrack-single-stim	s649	False	1
316.108	0.547	316.655	-2.9120542054844387	end_round	0.547	columbia_card_task_fmri	15.0	0.75	71.0	-60.0	0.25	9.0	2.0	2.0	-0.942331300677651	0.547	1.0	stim	poldrack-single-stim	s649	False	1
317.41	1.5	316.659	n/a	-1.0	2.386	columbia_card_task_fmri	n/a	n/a	-1.0	n/a	n/a	n/a	n/a	n/a	n/a	n/a	n/a	ITI	poldrack-single-stim	s649	False	0
319.051	1.396	320.447	3.5379457945155623	draw_card	1.396	columbia_card_task_fmri	13.0	0.9	89.0	-90.0	0.1	10.0	1.0	1.0	-2.517732885474228	1.396	n/a	stim	poldrack-single-stim	s649	False	1
320.451	0.548	320.999	2.3935013500711166	draw_card	0.548	columbia_card_task_fmri	13.0	0.8888888888888888	89.0	-90.0	0.1111111111111111	10.0	2.0	1.0	-1.0484714071707444	0.548	n/a	stim	poldrack-single-stim	s649	False	1
321.004	0.655	321.659	0.9629457945155612	draw_card	0.655	columbia_card_task_fmri	13.0	0.875	89.0	-90.0	0.125	10.0	3.0	1.0	0.6452604391987435	0.655	n/a	stim	poldrack-single-stim	s649	False	1
321.662	1.377	323.039	-0.8763399197701505	end_round	1.377	columbia_card_task_fmri	13.0	0.8571428571428572	71.0	-90.0	0.1428571428571428	10.0	4.0	1.0	2.623138744667408	1.377	3.0	stim	poldrack-single-stim	s649	False	1
323.792	1.5	323.041	n/a	-1.0	2.25	columbia_card_task_fmri	n/a	n/a	-1.0	n/a	n/a	n/a	n/a	n/a	n/a	n/a	n/a	ITI	poldrack-single-stim	s649	False	0
325.296	1.824	327.12	4.837945794515561	draw_card	1.824	columbia_card_task_fmri	15.0	0.9	89.0	-95.0	0.1	10.0	1.0	1.0	-0.4184555291252891	1.824	n/a	stim	poldrack-single-stim	s649	False	1
327.124	0.585	327.709	3.615723572293338	draw_card	0.585	columbia_card_task_fmri	15.0	0.8888888888888888	89.0	-95.0	0.1111111111111111	10.0	2.0	1.0	1.1507264934706	0.585	n/a	stim	poldrack-single-stim	s649	False	1
327.712	0.472	328.184	2.0879457945155613	draw_card	0.472	columbia_card_task_fmri	15.0	0.875	89.0	-95.0	0.125	10.0	3.0	1.0	2.959637255651998	0.472	n/a	stim	poldrack-single-stim	s649	False	1
328.188	0.479	328.667	0.1236600802298477	draw_card	0.479	columbia_card_task_fmri	15.0	0.8571428571428572	89.0	-95.0	0.1428571428571428	10.0	4.0	1.0	5.072008864707357	0.479	n/a	stim	poldrack-single-stim	s649	False	1
328.67	1.066	329.736	-2.495387538817771	end_round	1.066	columbia_card_task_fmri	15.0	0.8333333333333334	71.0	-95.0	0.1666666666666666	10.0	5.0	1.0	7.574050169739117	1.066	4.0	stim	poldrack-single-stim	s649	False	1
330.491	1.5	329.74	n/a	-1.0	2.318	columbia_card_task_fmri	n/a	n/a	-1.0	n/a	n/a	n/a	n/a	n/a	n/a	n/a	n/a	ITI	poldrack-single-stim	s649	False	0
332.062	1.143	333.205	0.637945794515562	end_round	1.143	columbia_card_task_fmri	16.0	0.8	71.0	-65.0	0.2	10.0	1.0	2.0	-1.0182586134484453	1.143	0.0	stim	poldrack-single-stim	s649	False	1
333.96	1.5	333.209	n/a	-1.0	2.25	columbia_card_task_fmri	n/a	n/a	-1.0	n/a	n/a	n/a	n/a	n/a	n/a	n/a	n/a	ITI	poldrack-single-stim	s649	False	0
335.465	1.675	337.14	-0.6620542054844387	draw_card	1.675	columbia_card_task_fmri	7.0	0.9166666666666666	89.0	-95.0	0.0833333333333333	12.0	1.0	1.0	-5.225331169054623	1.675	n/a	stim	poldrack-single-stim	s649	False	1
337.144	0.521	337.665	-1.434781478211712	draw_card	0.521	columbia_card_task_fmri	7.0	0.9090909090909092	89.0	-95.0	0.0909090909090909	12.0	2.0	1.0	-4.094183876329925	0.521	2.0	stim	poldrack-single-stim	s649	False	0
338.42	1.5	337.669	n/a	-1.0	2.25	columbia_card_task_fmri	n/a	n/a	-1.0	n/a	n/a	n/a	n/a	n/a	n/a	n/a	n/a	ITI	poldrack-single-stim	s649	False	0
339.925	2.283	342.208	0.0046124611822291	draw_card	2.283	columbia_card_task_fmri	14.0	0.8333333333333334	89.0	-75.0	0.1666666666666666	12.0	1.0	2.0	-0.2501678321914085	2.283	1.0	stim	poldrack-single-stim	s649	False	0
342.963	1.5	342.212	n/a	-1.0	2.386	columbia_card_task_fmri	n/a	n/a	-1.0	n/a	n/a	n/a	n/a	n/a	n/a	n/a	n/a	ITI	poldrack-single-stim	s649	False	0
344.604	1.286	345.89	1.6712791278488952	end_round	1.286	columbia_card_task_fmri	15.0	0.8333333333333334	71.0	-70.0	0.1666666666666666	12.0	1.0	2.0	-1.7403819638742704	1.286	0.0	stim	poldrack-single-stim	s649	False	1
346.645	1.5	345.894	n/a	-1.0	2.386	columbia_card_task_fmri	n/a	n/a	-1.0	n/a	n/a	n/a	n/a	n/a	n/a	n/a	n/a	ITI	poldrack-single-stim	s649	False	0
348.286	1.609	349.895	-0.362054205484438	draw_card	1.609	columbia_card_task_fmri	16.0	0.8	89.0	-70.0	0.2	15.0	1.0	3.0	0.9811117020354416	1.609	n/a	stim	poldrack-single-stim	s649	False	1
349.901	1.695	351.596	-1.5906256340558675	draw_card	1.695	columbia_card_task_fmri	16.0	0.7857142857142857	89.0	-70.0	0.2142857142857142	15.0	2.0	3.0	1.868882671202087	1.695	2.0	stim	poldrack-single-stim	s649	False	0
352.351	1.5	351.6	n/a	-1.0	2.726	columbia_card_task_fmri	n/a	n/a	-1.0	n/a	n/a	n/a	n/a	n/a	n/a	n/a	n/a	ITI	poldrack-single-stim	s649	False	0
354.33	1.705	356.035	0.0254457945155612	draw_card	1.705	columbia_card_task_fmri	14.0	0.8125	89.0	-65.0	0.1875	16.0	1.0	3.0	-2.5830312122375148	1.705	n/a	stim	poldrack-single-stim	s649	False	1
356.039	0.595	356.634	-0.9620542054844377	end_round	0.595	columbia_card_task_fmri	14.0	0.8	71.0	-65.0	0.2	16.0	2.0	3.0	-1.817984433056452	0.595	1.0	stim	poldrack-single-stim	s649	False	1
357.39	1.5	356.639	n/a	-1.0	2.454	columbia_card_task_fmri	n/a	n/a	-1.0	n/a	n/a	n/a	n/a	n/a	n/a	n/a	n/a	ITI	poldrack-single-stim	s649	False	0
359.1	1.192	360.292	-0.2245542054844387	draw_card	1.192	columbia_card_task_fmri	16.0	0.8125	89.0	-75.0	0.1875	16.0	1.0	3.0	2.099216592582671	1.192	n/a	stim	poldrack-single-stim	s649	False	1
360.296	1.653	361.949	-1.362054205484438	draw_card	1.653	columbia_card_task_fmri	16.0	0.8	89.0	-75.0	0.2	16.0	2.0	3.0	2.980551184467941	1.653	n/a	stim	poldrack-single-stim	s649	False	1
361.954	0.622	362.576	-2.662054205484437	end_round	0.622	columbia_card_task_fmri	16.0	0.7857142857142857	71.0	-75.0	0.2142857142857142	16.0	3.0	3.0	3.9199657643238903	0.622	2.0	stim	poldrack-single-stim	s649	False	1
363.332	1.5	362.581	n/a	-1.0	2.318	columbia_card_task_fmri	n/a	n/a	-1.0	n/a	n/a	n/a	n/a	n/a	n/a	n/a	n/a	ITI	poldrack-single-stim	s649	False	0
364.904	0.772	365.676	4.037945794515562	draw_card	0.772	columbia_card_task_fmri	16.0	0.8666666666666667	89.0	-80.0	0.1333333333333333	15.0	1.0	2.0	-0.7846112937972833	0.772	1.0	stim	poldrack-single-stim	s649	False	0
366.431	1.5	365.68	n/a	-1.0	2.318	columbia_card_task_fmri	n/a	n/a	-1.0	n/a	n/a	n/a	n/a	n/a	n/a	n/a	n/a	ITI	poldrack-single-stim	s649	False	0
368.004	1.699	369.703	4.9046124611822295	draw_card	1.699	columbia_card_task_fmri	17.0	0.8666666666666667	89.0	-80.0	0.1333333333333333	15.0	1.0	2.0	-0.4447875134605965	1.699	n/a	stim	poldrack-single-stim	s649	False	1
369.705	0.53	370.235	3.980802937372707	draw_card	0.53	columbia_card_task_fmri	17.0	0.8571428571428572	89.0	-80.0	0.1428571428571428	15.0	2.0	2.0	0.5241783616478273	0.53	n/a	stim	poldrack-single-stim	s649	False	1
370.239	0.608	370.847	2.914868871438638	end_round	0.608	columbia_card_task_fmri	17.0	0.8461538461538461	71.0	-80.0	0.1538461538461538	15.0	3.0	2.0	1.578655069836671	0.608	2.0	stim	poldrack-single-stim	s649	False	1
371.602	1.5	370.851	n/a	-1.0	2.59	columbia_card_task_fmri	n/a	n/a	-1.0	n/a	n/a	n/a	n/a	n/a	n/a	n/a	n/a	ITI	poldrack-single-stim	s649	False	0
373.447	0.803	374.25	0.8379457945155613	end_round	0.803	columbia_card_task_fmri	1.0	0.9375	71.0	-15.0	0.0625	16.0	1.0	1.0	-29.466498253455303	0.803	0.0	stim	poldrack-single-stim	s649	False	1
375.005	1.5	374.254	n/a	-1.0	2.726	columbia_card_task_fmri	n/a	n/a	-1.0	n/a	n/a	n/a	n/a	n/a	n/a	n/a	n/a	ITI	poldrack-single-stim	s649	False	0
376.986	1.73	378.716	3.962945794515561	end_round	1.73	columbia_card_task_fmri	10.0	0.9375	71.0	-100.0	0.0625	16.0	1.0	1.0	-6.7891501537843695	1.73	0.0	stim	poldrack-single-stim	s649	False	1
379.472	1.5	378.721	n/a	-1.0	2.522	columbia_card_task_fmri	n/a	n/a	-1.0	n/a	n/a	n/a	n/a	n/a	n/a	n/a	n/a	ITI	poldrack-single-stim	s649	False	0
381.249	1.828	383.077	4.587945794515561	draw_card	1.828	columbia_card_task_fmri	15.0	0.875	89.0	-75.0	0.125	16.0	1.0	2.0	-3.65259752130606	1.828	n/a	stim	poldrack-single-stim	s649	False	1
383.082	0.999	384.081	3.837945794515561	end_round	0.999	columbia_card_task_fmri	15.0	0.8666666666666667	71.0	-75.0	0.1333333333333333	16.0	2.0	2.0	-2.82350227177696	0.999	1.0	stim	poldrack-single-stim	s649	False	1
384.837	1.5	384.086	n/a	-1.0	3.134	columbia_card_task_fmri	n/a	n/a	-1.0	n/a	n/a	n/a	n/a	n/a	n/a	n/a	n/a	ITI	poldrack-single-stim	s649	False	0
387.226	1.784	389.01	4.837945794515561	draw_card	1.784	columbia_card_task_fmri	16.0	0.875	89.0	-80.0	0.125	16.0	1.0	2.0	-1.6690208184012365	1.784	n/a	stim	poldrack-single-stim	s649	False	1
389.015	1.446	390.461	4.037945794515562	draw_card	1.446	columbia_card_task_fmri	16.0	0.8666666666666667	89.0	-80.0	0.1333333333333333	16.0	2.0	2.0	-0.7846112937972833	1.446	2.0	stim	poldrack-single-stim	s649	False	0
391.216	1.5	390.465	n/a	-1.0	2.386	columbia_card_task_fmri	n/a	n/a	-1.0	n/a	n/a	n/a	n/a	n/a	n/a	n/a	n/a	ITI	poldrack-single-stim	s649	False	0
392.857	1.244	394.101	2.0254457945155613	end_round	1.244	columbia_card_task_fmri	4.0	0.6875	71.0	-5.0	0.3125	16.0	1.0	5.0	-29.17415455528749	1.244	0.0	stim	poldrack-single-stim	s649	False	1
394.856	1.5	394.105	n/a	-1.0	2.386	columbia_card_task_fmri	n/a	n/a	-1.0	n/a	n/a	n/a	n/a	n/a	n/a	n/a	n/a	ITI	poldrack-single-stim	s649	False	0
396.497	1.892	398.389	-0.828720872151103	draw_card	1.892	columbia_card_task_fmri	14.0	0.8333333333333334	89.0	-80.0	0.1666666666666666	6.0	1.0	1.0	1.6126593889867564	1.892	1.0	stim	poldrack-single-stim	s649	False	0
399.143	1.5	398.392	n/a	-1.0	2.318	columbia_card_task_fmri	n/a	n/a	-1.0	n/a	n/a	n/a	n/a	n/a	n/a	n/a	n/a	ITI	poldrack-single-stim	s649	False	0
400.715	2.369	403.084	0.8379457945155613	draw_card	2.369	columbia_card_task_fmri	15.0	0.8333333333333334	89.0	-75.0	0.1666666666666666	6.0	1.0	1.0	0.1223926120483156	2.369	n/a	stim	poldrack-single-stim	s649	False	1
403.087	0.458	403.545	-2.1620542054844387	end_round	0.458	columbia_card_task_fmri	15.0	0.8	71.0	-75.0	0.2	6.0	2.0	1.0	2.5806583076505376	0.458	1.0	stim	poldrack-single-stim	s649	False	1
404.301	1.5	403.55	n/a	-1.0	2.318	columbia_card_task_fmri	n/a	n/a	-1.0	n/a	n/a	n/a	n/a	n/a	n/a	n/a	n/a	ITI	poldrack-single-stim	s649	False	0
405.874	0.718	406.592	2.504612461182229	draw_card	0.718	columbia_card_task_fmri	16.0	0.8333333333333334	89.0	-70.0	0.1666666666666666	6.0	1.0	1.0	-1.3678327704894144	0.718	n/a	stim	poldrack-single-stim	s649	False	1
406.597	0.483	407.08	-0.362054205484438	end_round	0.483	columbia_card_task_fmri	16.0	0.8	71.0	-70.0	0.2	6.0	2.0	1.0	0.9811117020354416	0.483	1.0	stim	poldrack-single-stim	s649	False	1
407.835	1.5	407.084	n/a	-1.0	2.862	columbia_card_task_fmri	n/a	n/a	-1.0	n/a	n/a	n/a	n/a	n/a	n/a	n/a	n/a	ITI	poldrack-single-stim	s649	False	0
409.954	1.72	411.674	3.0879457945155613	draw_card	1.72	columbia_card_task_fmri	23.0	0.75	89.0	-60.0	0.25	8.0	1.0	2.0	2.5207288240200256	1.72	n/a	stim	poldrack-single-stim	s649	False	1
411.677	0.511	412.188	0.1236600802298495	draw_card	0.511	columbia_card_task_fmri	23.0	0.7142857142857143	89.0	-60.0	0.2857142857142857	8.0	2.0	2.0	4.075847449013686	0.511	2.0	stim	poldrack-single-stim	s649	False	0
412.944	1.5	412.193	n/a	-1.0	2.726	columbia_card_task_fmri	n/a	n/a	-1.0	n/a	n/a	n/a	n/a	n/a	n/a	n/a	n/a	ITI	poldrack-single-stim	s649	False	0
414.925	1.152	416.077	3.5879457945155613	draw_card	1.152	columbia_card_task_fmri	27.0	0.75	89.0	-70.0	0.25	8.0	1.0	2.0	8.581497274978297	1.152	1.0	stim	poldrack-single-stim	s649	False	0
416.833	1.5	416.082	n/a	-1.0	2.25	columbia_card_task_fmri	n/a	n/a	-1.0	n/a	n/a	n/a	n/a	n/a	n/a	n/a	n/a	ITI	poldrack-single-stim	s649	False	0
418.338	0.633	418.971	-1.162054205484437	draw_card	0.633	columbia_card_task_fmri	16.0	0.7777777777777778	89.0	-65.0	0.2222222222222222	9.0	1.0	2.0	0.2562478311333223	0.633	n/a	stim	poldrack-single-stim	s649	False	1
418.975	1.132	420.107	-3.4120542054844387	draw_card	1.132	columbia_card_task_fmri	16.0	0.75	89.0	-65.0	0.25	9.0	2.0	2.0	1.654944514391211	1.132	n/a	stim	poldrack-single-stim	s649	False	1
420.111	0.558	420.669	-6.304911348341579	end_round	0.558	columbia_card_task_fmri	16.0	0.7142857142857143	71.0	-65.0	0.2857142857142857	9.0	3.0	2.0	3.172570646188433	0.558	2.0	stim	poldrack-single-stim	s649	False	1
421.425	1.5	420.674	n/a	-1.0	2.318	columbia_card_task_fmri	n/a	n/a	-1.0	n/a	n/a	n/a	n/a	n/a	n/a	n/a	n/a	ITI	poldrack-single-stim	s649	False	0
422.998	0.778	423.776	4.037945794515562	draw_card	0.778	columbia_card_task_fmri	13.0	0.9	89.0	-85.0	0.1	10.0	1.0	1.0	-4.017153542912677	0.778	n/a	stim	poldrack-single-stim	s649	False	1
423.781	0.647	424.428	2.949056905626672	end_round	0.647	columbia_card_task_fmri	13.0	0.8888888888888888	71.0	-85.0	0.1111111111111111	10.0	2.0	1.0	-2.619266744328033	0.647	1.0	stim	poldrack-single-stim	s649	False	1
425.183	1.5	424.432	n/a	-1.0	2.454	columbia_card_task_fmri	n/a	n/a	-1.0	n/a	n/a	n/a	n/a	n/a	n/a	n/a	n/a	ITI	poldrack-single-stim	s649	False	0
426.891	0.499	427.39	-0.9620542054844377	draw_card	0.499	columbia_card_task_fmri	14.0	0.8	89.0	-65.0	0.2	10.0	1.0	2.0	-1.817984433056452	0.499	n/a	stim	poldrack-single-stim	s649	False	1
427.394	1.428	428.822	-2.7176097610399923	end_round	1.428	columbia_card_task_fmri	14.0	0.7777777777777778	71.0	-65.0	0.2222222222222222	10.0	2.0	2.0	-0.5749677780225824	1.428	1.0	stim	poldrack-single-stim	s649	False	1
429.579	1.5	428.828	n/a	-1.0	2.522	columbia_card_task_fmri	n/a	n/a	-1.0	n/a	n/a	n/a	n/a	n/a	n/a	n/a	n/a	ITI	poldrack-single-stim	s649	False	0
431.356	0.706	432.062	0.4379457945155627	draw_card	0.706	columbia_card_task_fmri	17.0	0.8	89.0	-70.0	0.2	10.0	1.0	2.0	1.380994446553366	0.706	n/a	stim	poldrack-single-stim	s649	False	1
432.066	0.683	432.749	-1.4953875388177709	draw_card	0.683	columbia_card_task_fmri	17.0	0.7777777777777778	89.0	-70.0	0.2222222222222222	10.0	2.0	2.0	2.7499674028175605	0.683	n/a	stim	poldrack-single-stim	s649	False	1
432.753	0.434	433.187	-3.912054205484439	end_round	0.434	columbia_card_task_fmri	17.0	0.75	71.0	-70.0	0.25	10.0	3.0	2.0	4.252330684807511	0.434	2.0	stim	poldrack-single-stim	s649	False	1
433.944	1.5	433.193	n/a	-1.0	2.318	columbia_card_task_fmri	n/a	n/a	-1.0	n/a	n/a	n/a	n/a	n/a	n/a	n/a	n/a	ITI	poldrack-single-stim	s649	False	0
435.516	1.404	436.92	-0.8287208721511048	draw_card	1.404	columbia_card_task_fmri	13.0	0.8333333333333334	89.0	-75.0	0.1666666666666666	12.0	1.0	2.0	-0.6227256060872719	1.404	n/a	stim	poldrack-single-stim	s649	False	1
436.926	0.515	437.441	-2.1620542054844405	end_round	0.515	columbia_card_task_fmri	13.0	0.8181818181818181	71.0	-75.0	0.1818181818181818	12.0	2.0	2.0	0.5223751151831166	0.515	1.0	stim	poldrack-single-stim	s649	False	1
438.197	1.5	437.446	n/a	-1.0	2.522	columbia_card_task_fmri	n/a	n/a	-1.0	n/a	n/a	n/a	n/a	n/a	n/a	n/a	n/a	ITI	poldrack-single-stim	s649	False	0
439.974	2.436	442.41	0.8379457945155631	draw_card	2.436	columbia_card_task_fmri	14.0	0.8333333333333334	89.0	-70.0	0.1666666666666666	12.0	1.0	2.0	-2.11292809215189	2.436	n/a	stim	poldrack-single-stim	s649	False	1
442.413	1.008	443.421	-0.4347814782117138	draw_card	1.008	columbia_card_task_fmri	14.0	0.8181818181818181	89.0	-70.0	0.1818181818181818	12.0	2.0	2.0	-1.019910995623519	1.008	n/a	stim	poldrack-single-stim	s649	False	1
443.425	0.492	443.917	-1.9620542054844377	end_round	0.492	columbia_card_task_fmri	14.0	0.8	71.0	-70.0	0.2	12.0	3.0	2.0	0.1813545845617028	0.492	2.0	stim	poldrack-single-stim	s649	False	1
444.673	1.5	443.922	n/a	-1.0	2.998	columbia_card_task_fmri	n/a	n/a	-1.0	n/a	n/a	n/a	n/a	n/a	n/a	n/a	n/a	ITI	poldrack-single-stim	s649	False	0
446.926	1.459	448.385	0.8379457945155631	draw_card	1.459	columbia_card_task_fmri	16.0	0.8333333333333334	89.0	-80.0	0.1666666666666666	12.0	1.0	2.0	2.3578066843192147	1.459	n/a	stim	poldrack-single-stim	s649	False	1
448.389	1.247	449.636	-0.6165996600298955	draw_card	1.247	columbia_card_task_fmri	16.0	0.8181818181818181	89.0	-80.0	0.1818181818181818	12.0	2.0	2.0	3.607070366079739	1.247	n/a	stim	poldrack-single-stim	s649	False	1
449.641	0.14	449.781	-2.362054205484438	draw_card	0.14	columbia_card_task_fmri	16.0	0.8	89.0	-80.0	0.2	12.0	3.0	2.0	4.98004903211519	0.14	n/a	stim	poldrack-single-stim	s649	False	1
449.785	0.782	450.567	-4.495387538817773	end_round	0.782	columbia_card_task_fmri	16.0	0.7777777777777778	71.0	-80.0	0.2222222222222222	12.0	4.0	2.0	6.490715141396166	0.782	3.0	stim	poldrack-single-stim	s649	False	1
451.323	1.5	450.572	n/a	-1.0	2.318	columbia_card_task_fmri	n/a	n/a	-1.0	n/a	n/a	n/a	n/a	n/a	n/a	n/a	n/a	ITI	poldrack-single-stim	s649	False	0
452.896	1.948	454.844	0.637945794515562	draw_card	1.948	columbia_card_task_fmri	16.0	0.8	89.0	-65.0	0.2	15.0	1.0	3.0	-1.0182586134484453	1.948	n/a	stim	poldrack-single-stim	s649	False	1
454.849	0.718	455.567	-0.5191970626272946	end_round	0.718	columbia_card_task_fmri	16.0	0.7857142857142857	71.0	-65.0	0.2142857142857142	15.0	2.0	3.0	-0.1821329925702173	0.718	1.0	stim	poldrack-single-stim	s649	False	1
456.323	1.5	455.572	n/a	-1.0	2.25	columbia_card_task_fmri	n/a	n/a	-1.0	n/a	n/a	n/a	n/a	n/a	n/a	n/a	n/a	ITI	poldrack-single-stim	s649	False	0
457.828	1.743	459.571	-1.0370542054844387	end_round	1.743	columbia_card_task_fmri	15.0	0.8125	71.0	-75.0	0.1875	16.0	1.0	3.0	1.7090139974663143	1.743	0.0	stim	poldrack-single-stim	s649	False	1
460.326	1.5	459.575	n/a	-1.0	2.454	columbia_card_task_fmri	n/a	n/a	-1.0	n/a	n/a	n/a	n/a	n/a	n/a	n/a	n/a	ITI	poldrack-single-stim	s649	False	0
462.036	1.271	463.307	-0.4745542054844387	end_round	1.271	columbia_card_task_fmri	14.0	0.6875	71.0	-35.0	0.3125	16.0	1.0	5.0	-10.701532205247863	1.271	0.0	stim	poldrack-single-stim	s649	False	1
464.063	1.5	463.312	n/a	-1.0	2.318	columbia_card_task_fmri	n/a	n/a	-1.0	n/a	n/a	n/a	n/a	n/a	n/a	n/a	n/a	ITI	poldrack-single-stim	s649	False	0
465.637	2.221	467.858	4.704612461182228	draw_card	2.221	columbia_card_task_fmri	16.0	0.8666666666666667	89.0	-75.0	0.1333333333333333	15.0	1.0	2.0	-2.4836936695735226	2.221	n/a	stim	poldrack-single-stim	s649	False	1
467.861	0.473	468.334	3.837945794515563	draw_card	0.473	columbia_card_task_fmri	16.0	0.8571428571428572	89.0	-75.0	0.1428571428571428	15.0	2.0	2.0	-1.5747026420779555	0.473	n/a	stim	poldrack-single-stim	s649	False	1
468.34	0.439	468.779	2.8379457945155613	draw_card	0.439	columbia_card_task_fmri	16.0	0.8461538461538461	89.0	-75.0	0.1538461538461538	15.0	3.0	2.0	-0.5854910954260077	0.439	n/a	stim	poldrack-single-stim	s649	False	1
468.783	0.748	469.531	1.6712791278488952	draw_card	0.748	columbia_card_task_fmri	16.0	0.8333333333333334	89.0	-75.0	0.1666666666666666	15.0	4.0	2.0	0.4949556386532023	0.748	n/a	stim	poldrack-single-stim	s649	False	1
469.536	0.596	470.132	0.2924912490610145	end_round	0.596	columbia_card_task_fmri	16.0	0.8181818181818181	71.0	-75.0	0.1818181818181818	15.0	5.0	2.0	1.679118088805062	0.596	4.0	stim	poldrack-single-stim	s649	False	1
470.888	1.5	470.137	n/a	-1.0	2.318	columbia_card_task_fmri	n/a	n/a	-1.0	n/a	n/a	n/a	n/a	n/a	n/a	n/a	n/a	ITI	poldrack-single-stim	s649	False	0
472.462	2.515	474.977	5.371279127848895	draw_card	2.515	columbia_card_task_fmri	16.0	0.8666666666666667	89.0	-70.0	0.1333333333333333	15.0	1.0	2.0	-4.182707388263935	2.515	n/a	stim	poldrack-single-stim	s649	False	1
474.981	0.58	475.561	4.552231508801277	draw_card	0.58	columbia_card_task_fmri	16.0	0.8571428571428572	89.0	-70.0	0.1428571428571428	15.0	2.0	2.0	-3.323697530358917	0.58	2.0	stim	poldrack-single-stim	s649	False	0
476.316	1.5	475.565	n/a	-1.0	2.59	columbia_card_task_fmri	n/a	n/a	-1.0	n/a	n/a	n/a	n/a	n/a	n/a	n/a	n/a	ITI	poldrack-single-stim	s649	False	0
478.162	5.272	483.434	2.7129457945155613	draw_card	5.272	columbia_card_task_fmri	8.0	0.9375	89.0	-90.0	0.0625	16.0	1.0	1.0	-9.692274511826376	5.272	n/a	stim	poldrack-single-stim	s649	False	1
483.438	0.529	483.967	2.304612461182228	draw_card	0.529	columbia_card_task_fmri	8.0	0.9333333333333332	89.0	-90.0	0.0666666666666666	16.0	2.0	1.0	-8.969240181815373	0.529	n/a	stim	poldrack-single-stim	s649	False	1
483.972	0.502	484.474	1.8379457945155624	draw_card	0.502	columbia_card_task_fmri	8.0	0.9285714285714286	89.0	-90.0	0.0714285714285714	16.0	3.0	1.0	-8.176327241382854	0.502	n/a	stim	poldrack-single-stim	s649	False	1
484.479	0.603	485.082	1.299484256054023	draw_card	0.603	columbia_card_task_fmri	8.0	0.9230769230769232	89.0	-90.0	0.0769230769230769	16.0	4.0	1.0	-7.301655166595125	0.603	n/a	stim	poldrack-single-stim	s649	False	1
485.087	0.58	485.667	0.6712791278488943	draw_card	0.58	columbia_card_task_fmri	8.0	0.9166666666666666	89.0	-90.0	0.0833333333333333	16.0	5.0	1.0	-6.330364815853443	0.58	n/a	stim	poldrack-single-stim	s649	False	1
485.672	0.764	486.436	-0.0711451145753478	draw_card	0.764	columbia_card_task_fmri	8.0	0.9090909090909092	89.0	-90.0	0.0909090909090909	16.0	6.0	1.0	-5.243614652758261	0.764	n/a	stim	poldrack-single-stim	s649	False	1
486.441	0.66	487.101	-0.9620542054844384	end_round	0.66	columbia_card_task_fmri	8.0	0.9	71.0	-90.0	0.1	16.0	7.0	1.0	-4.017153542912677	0.66	6.0	stim	poldrack-single-stim	s649	False	1
487.858	1.5	487.107	n/a	-1.0	2.25	columbia_card_task_fmri	n/a	n/a	-1.0	n/a	n/a	n/a	n/a	n/a	n/a	n/a	n/a	ITI	poldrack-single-stim	s649	False	0
489.363	1.902	491.265	4.275445794515561	draw_card	1.902	columbia_card_task_fmri	10.0	0.9375	89.0	-95.0	0.0625	16.0	1.0	1.0	-7.9988300759276	1.902	n/a	stim	poldrack-single-stim	s649	False	1
491.269	0.455	491.724	3.837945794515562	draw_card	0.455	columbia_card_task_fmri	10.0	0.9333333333333332	89.0	-95.0	0.0666666666666666	16.0	2.0	1.0	-7.224090053734283	0.455	n/a	stim	poldrack-single-stim	s649	False	1
491.729	0.38	492.109	3.337945794515562	draw_card	0.38	columbia_card_task_fmri	10.0	0.9285714285714286	89.0	-95.0	0.0714285714285714	16.0	3.0	1.0	-6.374478231625169	0.38	n/a	stim	poldrack-single-stim	s649	False	1
492.114	0.436	492.55	2.7610227175924846	draw_card	0.436	columbia_card_task_fmri	10.0	0.9230769230769232	89.0	-95.0	0.0769230769230769	16.0	4.0	1.0	-5.437265301710824	0.436	n/a	stim	poldrack-single-stim	s649	False	1
492.555	0.079	492.634	2.0879457945155613	draw_card	0.079	columbia_card_task_fmri	10.0	0.9166666666666666	89.0	-95.0	0.0833333333333333	16.0	5.0	1.0	-4.396530552857865	0.079	n/a	stim	poldrack-single-stim	s649	False	1
492.639	0.852	493.491	1.2924912490610143	end_round	0.852	columbia_card_task_fmri	10.0	0.9090909090909092	71.0	-95.0	0.0909090909090909	16.0	6.0	1.0	-3.2320863899492167	0.852	5.0	stim	poldrack-single-stim	s649	False	1
494.247	1.5	493.496	n/a	-1.0	2.25	columbia_card_task_fmri	n/a	n/a	-1.0	n/a	n/a	n/a	n/a	n/a	n/a	n/a	n/a	ITI	poldrack-single-stim	s649	False	0
495.753	1.715	497.468	5.212945794515561	draw_card	1.715	columbia_card_task_fmri	15.0	0.875	89.0	-70.0	0.125	16.0	1.0	2.0	-5.305498700260184	1.715	n/a	stim	poldrack-single-stim	s649	False	1
497.472	0.165	497.637	4.504612461182227	draw_card	0.165	columbia_card_task_fmri	15.0	0.8666666666666667	89.0	-70.0	0.1333333333333333	16.0	2.0	2.0	-4.522500827800496	0.165	n/a	stim	poldrack-single-stim	s649	False	1
497.643	0.649	498.292	3.695088651658419	draw_card	0.649	columbia_card_task_fmri	15.0	0.8571428571428572	89.0	-70.0	0.1428571428571428	16.0	3.0	2.0	-3.673487468894304	0.649	n/a	stim	poldrack-single-stim	s649	False	1
498.296	0.571	498.867	2.761022717592483	end_round	0.571	columbia_card_task_fmri	15.0	0.8461538461538461	71.0	-70.0	0.1538461538461538	16.0	4.0	2.0	-2.749543976647296	0.571	3.0	stim	poldrack-single-stim	s649	False	1
499.624	1.5	498.873	n/a	-1.0	2.522	columbia_card_task_fmri	n/a	n/a	-1.0	n/a	n/a	n/a	n/a	n/a	n/a	n/a	n/a	ITI	poldrack-single-stim	s649	False	0
501.4	1.275	502.675	4.212945794515561	draw_card	1.275	columbia_card_task_fmri	16.0	0.875	89.0	-85.0	0.125	16.0	1.0	2.0	-0.0159733965144113	1.275	n/a	stim	poldrack-single-stim	s649	False	1
502.68	0.62	503.3	3.3712791278488945	draw_card	0.62	columbia_card_task_fmri	16.0	0.8666666666666667	89.0	-85.0	0.1333333333333333	16.0	2.0	2.0	0.9145295490480834	0.62	2.0	stim	poldrack-single-stim	s649	False	0
504.056	1.5	503.305	n/a	-1.0	2.454	columbia_card_task_fmri	n/a	n/a	-1.0	n/a	n/a	n/a	n/a	n/a	n/a	n/a	n/a	ITI	poldrack-single-stim	s649	False	0
