onset	duration	movement_onset	CTI	block_duration	correct	correct_response	cue	cue_switch	experiment_exp_id	key_press	response_time	stim_color	stim_number	switch_type	task	task_switch	trial_id	trial_type	worker_id	first_trial_of_block	junk
3.617	1.0	5.717	0.1	3.224	True	89.0	Orange-Blue	stay	twobytwo	89.0	2.0	orange	7.0	cue_stay	color	stay	stim	poldrack-single-stim	s649	1	False
7.747	1.0	9.259	0.9	2.408	True	89.0	High-Low	n/a	twobytwo	89.0	0.612	orange	7.0	task_switch	magnitude	switch	stim	poldrack-single-stim	s649	0	False
11.061	1.0	12.356	0.9	2.816	True	71.0	Orange-Blue	n/a	twobytwo	71.0	0.395	blue	2.0	task_switch	color	switch	stim	poldrack-single-stim	s649	0	False
14.781	1.0	16.965	0.9	2.408	True	71.0	Magnitude	n/a	twobytwo	71.0	1.284	orange	1.0	task_switch	magnitude	switch	stim	poldrack-single-stim	s649	0	False
17.295	1.0	18.127	0.1	2.136	True	71.0	Color	n/a	twobytwo	71.0	0.732	blue	6.0	task_switch	color	switch	stim	poldrack-single-stim	s649	0	False
20.336	1.0	22.235	0.9	2.136	True	71.0	Color	stay	twobytwo	71.0	0.999	blue	8.0	cue_stay	color	stay	stim	poldrack-single-stim	s649	0	False
23.377	1.0	24.862	0.9	2.0	True	71.0	Orange-Blue	switch	twobytwo	71.0	0.585	blue	2.0	cue_switch	color	stay	stim	poldrack-single-stim	s649	0	False
26.282	1.0	28.032	0.9	2.0	True	89.0	Color	switch	twobytwo	89.0	0.85	orange	1.0	cue_switch	color	stay	stim	poldrack-single-stim	s649	0	False
29.188	1.0	30.618	0.9	2.272	True	71.0	High-Low	n/a	twobytwo	71.0	0.53	blue	4.0	task_switch	magnitude	switch	stim	poldrack-single-stim	s649	0	False
31.565	1.0	31.564	0.1	2.408	False	89.0	Orange-Blue	n/a	twobytwo	-1.0	n/a	orange	8.0	task_switch	color	switch	stim	poldrack-single-stim	s649	0	False
34.879	1.0	37.181	0.9	2.0	True	71.0	High-Low	n/a	twobytwo	71.0	1.402	blue	2.0	task_switch	magnitude	switch	stim	poldrack-single-stim	s649	0	False
36.985	1.0	37.802	0.1	2.136	True	89.0	Magnitude	switch	twobytwo	89.0	0.717	blue	7.0	cue_switch	magnitude	stay	stim	poldrack-single-stim	s649	0	False
40.027	1.0	42.236	0.9	2.0	False	89.0	Orange-Blue	n/a	twobytwo	71.0	1.309	orange	9.0	task_switch	color	switch	stim	poldrack-single-stim	s649	0	False
42.133	1.0	43.378	0.1	2.408	True	71.0	High-Low	n/a	twobytwo	71.0	1.145	orange	1.0	task_switch	magnitude	switch	stim	poldrack-single-stim	s649	0	False
45.445	1.0	46.988	0.9	2.272	True	89.0	Magnitude	switch	twobytwo	89.0	0.643	blue	9.0	cue_switch	magnitude	stay	stim	poldrack-single-stim	s649	0	False
48.622	1.0	51.505	0.9	2.0	True	71.0	Color	n/a	twobytwo	71.0	1.983	blue	7.0	task_switch	color	switch	stim	poldrack-single-stim	s649	0	False
50.726	1.0	52.229	0.1	2.272	True	71.0	Orange-Blue	switch	twobytwo	71.0	1.403	blue	8.0	cue_switch	color	stay	stim	poldrack-single-stim	s649	0	False
53.904	1.0	55.529	0.9	2.0	True	71.0	Magnitude	n/a	twobytwo	71.0	0.725	blue	4.0	task_switch	magnitude	switch	stim	poldrack-single-stim	s649	0	False
56.809	1.0	58.903	0.9	2.0	True	89.0	Color	n/a	twobytwo	89.0	1.194	orange	2.0	task_switch	color	switch	stim	poldrack-single-stim	s649	0	False
59.714	1.0	61.37	0.9	2.272	True	71.0	Color	stay	twobytwo	71.0	0.756	blue	9.0	cue_stay	color	stay	stim	poldrack-single-stim	s649	0	False
62.091	1.0	63.298	0.1	2.136	True	89.0	High-Low	n/a	twobytwo	89.0	1.107	blue	7.0	task_switch	magnitude	switch	stim	poldrack-single-stim	s649	0	False
65.132	1.0	66.557	0.9	2.0	False	89.0	Color	n/a	twobytwo	71.0	0.525	orange	2.0	task_switch	color	switch	stim	poldrack-single-stim	s649	0	False
67.238	1.0	68.553	0.1	2.0	True	71.0	Color	stay	twobytwo	71.0	1.215	blue	2.0	cue_stay	color	stay	stim	poldrack-single-stim	s649	0	False
70.143	1.0	71.784	0.9	2.0	True	71.0	Magnitude	n/a	twobytwo	71.0	0.741	orange	3.0	task_switch	magnitude	switch	stim	poldrack-single-stim	s649	0	False
73.049	1.0	74.68	0.9	2.0	True	89.0	High-Low	switch	twobytwo	89.0	0.731	blue	6.0	cue_switch	magnitude	stay	stim	poldrack-single-stim	s649	0	False
75.154	1.0	76.582	0.1	2.0	True	71.0	High-Low	stay	twobytwo	71.0	1.328	orange	3.0	cue_stay	magnitude	stay	stim	poldrack-single-stim	s649	0	False
77.259	1.0	78.398	0.1	2.136	False	89.0	Color	n/a	twobytwo	71.0	1.039	orange	9.0	task_switch	color	switch	stim	poldrack-single-stim	s649	0	False
79.5	1.0	80.728	0.1	2.0	True	89.0	Color	stay	twobytwo	89.0	1.128	orange	6.0	cue_stay	color	stay	stim	poldrack-single-stim	s649	0	False
82.406	1.0	84.452	0.9	2.0	True	71.0	High-Low	n/a	twobytwo	71.0	1.146	orange	2.0	task_switch	magnitude	switch	stim	poldrack-single-stim	s649	0	False
84.51	1.0	85.576	0.1	2.136	True	71.0	Magnitude	switch	twobytwo	71.0	0.966	orange	2.0	cue_switch	magnitude	stay	stim	poldrack-single-stim	s649	0	False
87.551	1.0	89.103	0.9	2.0	True	89.0	High-Low	switch	twobytwo	89.0	0.652	orange	6.0	cue_switch	magnitude	stay	stim	poldrack-single-stim	s649	0	False
90.456	1.0	92.955	0.9	2.136	False	89.0	Color	n/a	twobytwo	71.0	1.599	orange	2.0	task_switch	color	switch	stim	poldrack-single-stim	s649	0	False
92.696	1.0	93.793	0.1	2.68	True	89.0	Magnitude	n/a	twobytwo	89.0	0.997	blue	9.0	task_switch	magnitude	switch	stim	poldrack-single-stim	s649	0	False
95.481	1.0	96.571	0.1	2.272	True	89.0	Magnitude	stay	twobytwo	89.0	0.99	blue	9.0	cue_stay	magnitude	stay	stim	poldrack-single-stim	s649	0	False
98.657	1.0	100.27	0.9	2.136	True	89.0	Magnitude	stay	twobytwo	89.0	0.713	blue	8.0	cue_stay	magnitude	stay	stim	poldrack-single-stim	s649	0	False
101.699	1.0	104.502	0.9	2.0	False	89.0	Color	n/a	twobytwo	71.0	1.903	orange	3.0	task_switch	color	switch	stim	poldrack-single-stim	s649	0	False
103.803	1.0	104.785	0.1	2.136	True	89.0	High-Low	n/a	twobytwo	89.0	0.882	blue	9.0	task_switch	magnitude	switch	stim	poldrack-single-stim	s649	0	False
106.844	1.0	108.453	0.9	2.68	True	89.0	Color	n/a	twobytwo	89.0	0.709	orange	2.0	task_switch	color	switch	stim	poldrack-single-stim	s649	0	False
109.63	1.0	111.089	0.1	2.272	False	71.0	High-Low	n/a	twobytwo	89.0	1.359	orange	3.0	task_switch	magnitude	switch	stim	poldrack-single-stim	s649	0	False
112.007	1.0	113.817	0.1	2.0	False	71.0	Magnitude	switch	twobytwo	89.0	1.71	orange	1.0	cue_switch	magnitude	stay	stim	poldrack-single-stim	s649	0	False
114.112	1.0	115.172	0.1	2.0	True	89.0	Orange-Blue	n/a	twobytwo	89.0	0.96	orange	9.0	task_switch	color	switch	stim	poldrack-single-stim	s649	0	False
116.219	1.0	117.514	0.1	2.136	False	89.0	Orange-Blue	stay	twobytwo	71.0	1.195	orange	3.0	cue_stay	color	stay	stim	poldrack-single-stim	s649	0	False
119.259	1.0	119.258	0.9	2.0	False	71.0	Orange-Blue	stay	twobytwo	-1.0	n/a	blue	3.0	cue_stay	color	stay	stim	poldrack-single-stim	s649	0	False
121.363	1.0	121.502	0.1	2.0	False	89.0	Orange-Blue	stay	twobytwo	71.0	0.039	orange	8.0	cue_stay	color	stay	stim	poldrack-single-stim	s649	0	False
124.268	1.0	126.121	0.9	2.0	True	71.0	Color	switch	twobytwo	71.0	0.953	blue	4.0	cue_switch	color	stay	stim	poldrack-single-stim	s649	0	False
126.373	1.0	127.387	0.1	2.272	True	89.0	Magnitude	n/a	twobytwo	89.0	0.914	blue	7.0	task_switch	magnitude	switch	stim	poldrack-single-stim	s649	0	False
129.549	1.0	131.849	0.9	2.408	True	89.0	Orange-Blue	n/a	twobytwo	89.0	1.4	orange	9.0	task_switch	color	switch	stim	poldrack-single-stim	s649	0	False
132.861	1.0	134.276	0.9	2.0	True	89.0	Orange-Blue	stay	twobytwo	89.0	0.515	orange	2.0	cue_stay	color	stay	stim	poldrack-single-stim	s649	0	False
134.965	1.0	135.799	0.1	2.0	True	71.0	Orange-Blue	stay	twobytwo	71.0	0.734	blue	1.0	cue_stay	color	stay	stim	poldrack-single-stim	s649	0	False
137.87	1.0	137.869	0.9	2.0	False	71.0	High-Low	n/a	twobytwo	-1.0	n/a	blue	3.0	task_switch	magnitude	switch	stim	poldrack-single-stim	s649	0	False
139.975	1.0	141.068	0.1	2.272	True	71.0	Orange-Blue	n/a	twobytwo	71.0	0.993	blue	4.0	task_switch	color	switch	stim	poldrack-single-stim	s649	0	False
143.152	1.0	144.614	0.9	2.136	True	89.0	Orange-Blue	stay	twobytwo	89.0	0.562	orange	2.0	cue_stay	color	stay	stim	poldrack-single-stim	s649	0	False
146.194	1.0	147.782	0.9	2.0	True	89.0	Magnitude	n/a	twobytwo	89.0	0.688	blue	9.0	task_switch	magnitude	switch	stim	poldrack-single-stim	s649	0	False
149.099	1.0	150.694	0.9	2.544	True	71.0	High-Low	switch	twobytwo	71.0	0.695	orange	3.0	cue_switch	magnitude	stay	stim	poldrack-single-stim	s649	0	False
152.548	1.0	155.177	0.9	2.272	True	71.0	Orange-Blue	n/a	twobytwo	71.0	1.729	blue	2.0	task_switch	color	switch	stim	poldrack-single-stim	s649	0	False
154.925	1.0	155.715	0.1	2.272	True	71.0	Orange-Blue	stay	twobytwo	71.0	0.69	blue	2.0	cue_stay	color	stay	stim	poldrack-single-stim	s649	0	False
157.302	1.0	159.365	0.1	2.0	True	71.0	Color	switch	twobytwo	71.0	1.963	blue	8.0	cue_switch	color	stay	stim	poldrack-single-stim	s649	0	False
160.206	1.0	161.493	0.9	2.0	True	89.0	Color	stay	twobytwo	89.0	0.387	orange	9.0	cue_stay	color	stay	stim	poldrack-single-stim	s649	0	False
162.311	1.0	163.965	0.1	2.136	True	71.0	Magnitude	n/a	twobytwo	71.0	1.554	orange	2.0	task_switch	magnitude	switch	stim	poldrack-single-stim	s649	0	False
164.552	1.0	165.565	0.1	2.0	True	89.0	Orange-Blue	n/a	twobytwo	89.0	0.913	orange	7.0	task_switch	color	switch	stim	poldrack-single-stim	s649	0	False
167.457	1.0	169.804	0.9	2.136	True	89.0	Color	switch	twobytwo	89.0	1.447	orange	4.0	cue_switch	color	stay	stim	poldrack-single-stim	s649	0	False
169.697	1.0	170.887	0.1	2.272	True	89.0	Magnitude	n/a	twobytwo	89.0	1.09	blue	6.0	task_switch	magnitude	switch	stim	poldrack-single-stim	s649	0	False
172.875	1.0	174.835	0.9	2.136	True	71.0	Orange-Blue	n/a	twobytwo	71.0	1.06	blue	4.0	task_switch	color	switch	stim	poldrack-single-stim	s649	0	False
175.916	1.0	177.331	0.9	2.272	True	71.0	Orange-Blue	stay	twobytwo	71.0	0.515	blue	8.0	cue_stay	color	stay	stim	poldrack-single-stim	s649	0	False
179.094	1.0	181.417	0.9	2.0	True	89.0	High-Low	n/a	twobytwo	89.0	1.423	blue	6.0	task_switch	magnitude	switch	stim	poldrack-single-stim	s649	0	False
181.999	1.0	183.921	0.9	2.816	True	89.0	High-Low	stay	twobytwo	89.0	1.022	orange	6.0	cue_stay	magnitude	stay	stim	poldrack-single-stim	s649	0	False
185.72	1.0	187.482	0.9	2.408	True	89.0	Magnitude	switch	twobytwo	89.0	0.862	orange	6.0	cue_switch	magnitude	stay	stim	poldrack-single-stim	s649	0	False
189.033	1.0	190.332	0.9	2.0	True	89.0	Magnitude	stay	twobytwo	89.0	0.399	orange	9.0	cue_stay	magnitude	stay	stim	poldrack-single-stim	s649	0	False
191.938	1.0	193.363	0.9	2.544	True	71.0	Magnitude	stay	twobytwo	71.0	0.525	orange	3.0	cue_stay	magnitude	stay	stim	poldrack-single-stim	s649	0	False
194.586	1.0	195.813	0.1	2.136	True	89.0	Orange-Blue	n/a	twobytwo	89.0	1.127	orange	9.0	task_switch	color	switch	stim	poldrack-single-stim	s649	0	False
197.628	1.0	199.18	0.9	2.0	True	89.0	Magnitude	n/a	twobytwo	89.0	0.652	blue	7.0	task_switch	magnitude	switch	stim	poldrack-single-stim	s649	0	False
199.733	1.0	200.651	0.1	2.0	True	71.0	Magnitude	stay	twobytwo	71.0	0.818	blue	4.0	cue_stay	magnitude	stay	stim	poldrack-single-stim	s649	0	False
202.639	1.0	204.177	0.9	2.136	True	71.0	High-Low	switch	twobytwo	71.0	0.638	blue	3.0	cue_switch	magnitude	stay	stim	poldrack-single-stim	s649	0	False
205.68	1.0	207.347	0.9	2.136	True	71.0	High-Low	stay	twobytwo	71.0	0.767	orange	4.0	cue_stay	magnitude	stay	stim	poldrack-single-stim	s649	0	False
207.921	1.0	209.248	0.1	2.272	False	71.0	Color	n/a	twobytwo	89.0	1.227	blue	3.0	task_switch	color	switch	stim	poldrack-single-stim	s649	0	False
211.098	1.0	213.761	0.9	3.224	False	89.0	Orange-Blue	switch	twobytwo	71.0	1.763	orange	1.0	cue_switch	color	stay	stim	poldrack-single-stim	s649	0	False
214.427	1.0	216.024	0.1	2.0	True	89.0	Color	switch	twobytwo	89.0	1.497	orange	3.0	cue_switch	color	stay	stim	poldrack-single-stim	s649	0	False
216.533	1.0	217.526	0.1	2.0	False	89.0	Magnitude	n/a	twobytwo	71.0	0.893	blue	7.0	task_switch	magnitude	switch	stim	poldrack-single-stim	s649	0	False
218.636	1.0	219.828	0.1	2.272	True	89.0	Color	n/a	twobytwo	89.0	1.092	orange	1.0	task_switch	color	switch	stim	poldrack-single-stim	s649	0	False
221.013	1.0	221.895	0.1	2.136	True	89.0	Magnitude	n/a	twobytwo	89.0	0.782	blue	9.0	task_switch	magnitude	switch	stim	poldrack-single-stim	s649	0	False
236.763	1.0	238.366	0.1	2.0	True	89.0	Color	stay	twobytwo	89.0	1.503	orange	7.0	cue_stay	color	stay	stim	poldrack-single-stim	s649	1	False
239.669	1.0	241.102	0.9	2.0	True	89.0	High-Low	n/a	twobytwo	89.0	0.533	orange	7.0	task_switch	magnitude	switch	stim	poldrack-single-stim	s649	0	False
242.574	1.0	244.4	0.9	2.0	True	71.0	Color	n/a	twobytwo	71.0	0.926	blue	2.0	task_switch	color	switch	stim	poldrack-single-stim	s649	0	False
245.479	1.0	246.978	0.9	2.68	True	71.0	Magnitude	n/a	twobytwo	71.0	0.599	orange	1.0	task_switch	magnitude	switch	stim	poldrack-single-stim	s649	0	False
248.263	1.0	250.012	0.1	2.0	True	71.0	Color	n/a	twobytwo	71.0	1.649	blue	6.0	task_switch	color	switch	stim	poldrack-single-stim	s649	0	False
251.168	1.0	253.19	0.9	2.272	False	71.0	Color	stay	twobytwo	89.0	1.122	blue	8.0	cue_stay	color	stay	stim	poldrack-single-stim	s649	0	False
254.345	1.0	255.933	0.9	2.0	True	71.0	Orange-Blue	switch	twobytwo	71.0	0.688	blue	2.0	cue_switch	color	stay	stim	poldrack-single-stim	s649	0	False
257.249	1.0	258.835	0.9	2.272	False	89.0	Color	switch	twobytwo	71.0	0.686	orange	1.0	cue_switch	color	stay	stim	poldrack-single-stim	s649	0	False
260.425	1.0	262.142	0.9	2.952	False	71.0	Magnitude	n/a	twobytwo	89.0	0.817	blue	4.0	task_switch	magnitude	switch	stim	poldrack-single-stim	s649	0	False
263.483	1.0	263.482	0.1	2.0	False	89.0	Orange-Blue	n/a	twobytwo	-1.0	n/a	orange	8.0	task_switch	color	switch	stim	poldrack-single-stim	s649	0	False
266.386	1.0	268.527	0.9	2.0	True	71.0	Magnitude	n/a	twobytwo	71.0	1.241	blue	2.0	task_switch	magnitude	switch	stim	poldrack-single-stim	s649	0	False
268.491	1.0	269.261	0.1	2.0	True	89.0	High-Low	switch	twobytwo	89.0	0.67	blue	7.0	cue_switch	magnitude	stay	stim	poldrack-single-stim	s649	0	False
271.395	1.0	273.532	0.9	2.0	True	89.0	Color	n/a	twobytwo	89.0	1.237	orange	9.0	task_switch	color	switch	stim	poldrack-single-stim	s649	0	False
273.499	1.0	274.584	0.1	2.136	True	71.0	High-Low	n/a	twobytwo	71.0	0.985	orange	1.0	task_switch	magnitude	switch	stim	poldrack-single-stim	s649	0	False
276.541	1.0	279.147	0.9	2.0	True	89.0	Magnitude	switch	twobytwo	89.0	1.706	blue	9.0	cue_switch	magnitude	stay	stim	poldrack-single-stim	s649	0	False
279.445	1.0	281.604	0.9	2.0	False	71.0	Orange-Blue	n/a	twobytwo	89.0	1.259	blue	7.0	task_switch	color	switch	stim	poldrack-single-stim	s649	0	False
281.551	1.0	282.906	0.1	2.0	True	71.0	Color	switch	twobytwo	71.0	1.255	blue	8.0	cue_switch	color	stay	stim	poldrack-single-stim	s649	0	False
284.455	1.0	286.052	0.9	2.272	True	71.0	High-Low	n/a	twobytwo	71.0	0.697	blue	4.0	task_switch	magnitude	switch	stim	poldrack-single-stim	s649	0	False
287.633	1.0	289.284	0.9	2.136	True	89.0	Color	n/a	twobytwo	89.0	0.751	orange	2.0	task_switch	color	switch	stim	poldrack-single-stim	s649	0	False
290.674	1.0	292.551	0.9	2.0	True	71.0	Color	stay	twobytwo	71.0	0.977	blue	9.0	cue_stay	color	stay	stim	poldrack-single-stim	s649	0	False
292.779	1.0	293.841	0.1	2.136	False	89.0	High-Low	n/a	twobytwo	71.0	0.962	blue	7.0	task_switch	magnitude	switch	stim	poldrack-single-stim	s649	0	False
295.82	1.0	297.429	0.9	2.816	False	89.0	Color	n/a	twobytwo	71.0	0.709	orange	2.0	task_switch	color	switch	stim	poldrack-single-stim	s649	0	False
298.743	1.0	299.799	0.1	2.408	False	71.0	Color	stay	twobytwo	89.0	0.956	blue	2.0	cue_stay	color	stay	stim	poldrack-single-stim	s649	0	False
302.056	1.0	303.479	0.9	2.0	True	71.0	Magnitude	n/a	twobytwo	71.0	0.523	orange	3.0	task_switch	magnitude	switch	stim	poldrack-single-stim	s649	0	False
304.961	1.0	307.267	0.9	2.136	True	89.0	High-Low	switch	twobytwo	89.0	1.406	blue	6.0	cue_switch	magnitude	stay	stim	poldrack-single-stim	s649	0	False
307.201	1.0	308.403	0.1	2.136	True	71.0	High-Low	stay	twobytwo	71.0	1.102	orange	3.0	cue_stay	magnitude	stay	stim	poldrack-single-stim	s649	0	False
309.442	1.0	310.298	0.1	2.136	True	89.0	Orange-Blue	n/a	twobytwo	89.0	0.756	orange	9.0	task_switch	color	switch	stim	poldrack-single-stim	s649	0	False
311.682	1.0	312.408	0.1	2.544	True	89.0	Orange-Blue	stay	twobytwo	89.0	0.626	orange	6.0	cue_stay	color	stay	stim	poldrack-single-stim	s649	0	False
315.132	1.0	317.166	0.9	2.136	True	71.0	High-Low	n/a	twobytwo	71.0	1.134	orange	2.0	task_switch	magnitude	switch	stim	poldrack-single-stim	s649	0	False
317.373	1.0	318.845	0.1	2.0	True	71.0	Magnitude	switch	twobytwo	71.0	1.372	orange	2.0	cue_switch	magnitude	stay	stim	poldrack-single-stim	s649	0	False
320.278	1.0	321.772	0.9	2.0	True	89.0	High-Low	switch	twobytwo	89.0	0.594	orange	6.0	cue_switch	magnitude	stay	stim	poldrack-single-stim	s649	0	False
323.183	1.0	325.746	0.9	2.0	False	89.0	Orange-Blue	n/a	twobytwo	71.0	1.663	orange	2.0	task_switch	color	switch	stim	poldrack-single-stim	s649	0	False
325.289	1.0	326.032	0.1	2.0	True	89.0	High-Low	n/a	twobytwo	89.0	0.643	blue	9.0	task_switch	magnitude	switch	stim	poldrack-single-stim	s649	0	False
327.394	1.0	328.104	0.1	2.136	True	89.0	High-Low	stay	twobytwo	89.0	0.61	blue	9.0	cue_stay	magnitude	stay	stim	poldrack-single-stim	s649	0	False
330.435	1.0	331.779	0.9	2.0	True	89.0	High-Low	stay	twobytwo	89.0	0.444	blue	8.0	cue_stay	magnitude	stay	stim	poldrack-single-stim	s649	0	False
333.34	1.0	336.23	0.9	2.0	True	89.0	Orange-Blue	n/a	twobytwo	89.0	1.99	orange	3.0	task_switch	color	switch	stim	poldrack-single-stim	s649	0	False
335.445	1.0	336.203	0.1	2.0	True	89.0	Magnitude	n/a	twobytwo	89.0	0.658	blue	9.0	task_switch	magnitude	switch	stim	poldrack-single-stim	s649	0	False
338.35	1.0	339.87	0.9	2.136	False	89.0	Color	n/a	twobytwo	71.0	0.62	orange	2.0	task_switch	color	switch	stim	poldrack-single-stim	s649	0	False
340.59	1.0	341.896	0.1	2.136	True	71.0	High-Low	n/a	twobytwo	71.0	1.206	orange	3.0	task_switch	magnitude	switch	stim	poldrack-single-stim	s649	0	False
342.83	1.0	343.896	0.1	2.136	True	71.0	Magnitude	switch	twobytwo	71.0	0.966	orange	1.0	cue_switch	magnitude	stay	stim	poldrack-single-stim	s649	0	False
345.071	1.0	346.004	0.1	2.136	True	89.0	Orange-Blue	n/a	twobytwo	89.0	0.833	orange	9.0	task_switch	color	switch	stim	poldrack-single-stim	s649	0	False
347.312	1.0	348.512	0.1	2.68	False	89.0	Orange-Blue	stay	twobytwo	71.0	1.1	orange	3.0	cue_stay	color	stay	stim	poldrack-single-stim	s649	0	False
350.898	1.0	352.514	0.9	2.544	True	71.0	Orange-Blue	stay	twobytwo	71.0	0.716	blue	3.0	cue_stay	color	stay	stim	poldrack-single-stim	s649	0	False
353.548	1.0	355.527	0.1	2.272	False	89.0	Orange-Blue	stay	twobytwo	71.0	1.879	orange	8.0	cue_stay	color	stay	stim	poldrack-single-stim	s649	0	False
356.725	1.0	358.052	0.9	2.272	True	71.0	Color	switch	twobytwo	71.0	0.427	blue	4.0	cue_switch	color	stay	stim	poldrack-single-stim	s649	0	False
359.102	1.0	359.765	0.1	2.408	True	89.0	Magnitude	n/a	twobytwo	89.0	0.563	blue	7.0	task_switch	magnitude	switch	stim	poldrack-single-stim	s649	0	False
362.416	1.0	364.032	0.9	2.136	True	89.0	Orange-Blue	n/a	twobytwo	89.0	0.716	orange	9.0	task_switch	color	switch	stim	poldrack-single-stim	s649	0	False
365.457	1.0	366.889	0.9	2.272	True	89.0	Orange-Blue	stay	twobytwo	89.0	0.532	orange	2.0	cue_stay	color	stay	stim	poldrack-single-stim	s649	0	False
367.835	1.0	368.764	0.1	2.0	True	71.0	Orange-Blue	stay	twobytwo	71.0	0.829	blue	1.0	cue_stay	color	stay	stim	poldrack-single-stim	s649	0	False
370.739	1.0	372.503	0.9	2.136	True	71.0	Magnitude	n/a	twobytwo	71.0	0.864	blue	3.0	task_switch	magnitude	switch	stim	poldrack-single-stim	s649	0	False
372.98	1.0	374.472	0.1	2.272	True	71.0	Orange-Blue	n/a	twobytwo	71.0	1.392	blue	4.0	task_switch	color	switch	stim	poldrack-single-stim	s649	0	False
376.157	1.0	377.79	0.9	2.0	True	89.0	Orange-Blue	stay	twobytwo	89.0	0.733	orange	2.0	cue_stay	color	stay	stim	poldrack-single-stim	s649	0	False
379.062	1.0	380.564	0.9	2.68	True	89.0	Magnitude	n/a	twobytwo	89.0	0.602	blue	9.0	task_switch	magnitude	switch	stim	poldrack-single-stim	s649	0	False
382.647	1.0	384.103	0.9	2.0	True	71.0	High-Low	switch	twobytwo	71.0	0.556	orange	3.0	cue_switch	magnitude	stay	stim	poldrack-single-stim	s649	0	False
385.552	1.0	387.463	0.9	2.0	True	71.0	Color	n/a	twobytwo	71.0	1.011	blue	2.0	task_switch	color	switch	stim	poldrack-single-stim	s649	0	False
387.656	1.0	388.337	0.1	2.0	True	71.0	Color	stay	twobytwo	71.0	0.581	blue	2.0	cue_stay	color	stay	stim	poldrack-single-stim	s649	0	False
389.76	1.0	390.568	0.1	2.272	False	71.0	Orange-Blue	switch	twobytwo	89.0	0.708	blue	8.0	cue_switch	color	stay	stim	poldrack-single-stim	s649	0	False
392.938	1.0	394.547	0.9	2.0	True	89.0	Orange-Blue	stay	twobytwo	89.0	0.709	orange	9.0	cue_stay	color	stay	stim	poldrack-single-stim	s649	0	False
395.043	1.0	396.069	0.1	2.0	True	71.0	High-Low	n/a	twobytwo	71.0	0.926	orange	2.0	task_switch	magnitude	switch	stim	poldrack-single-stim	s649	0	False
397.148	1.0	397.833	0.1	2.0	True	89.0	Orange-Blue	n/a	twobytwo	89.0	0.585	orange	7.0	task_switch	color	switch	stim	poldrack-single-stim	s649	0	False
400.052	1.0	401.601	0.9	2.68	False	89.0	Color	switch	twobytwo	71.0	0.649	orange	4.0	cue_switch	color	stay	stim	poldrack-single-stim	s649	0	False
402.838	1.0	404.16	0.1	2.0	True	89.0	Magnitude	n/a	twobytwo	89.0	1.222	blue	6.0	task_switch	magnitude	switch	stim	poldrack-single-stim	s649	0	False
405.744	1.0	407.601	0.9	2.136	True	71.0	Color	n/a	twobytwo	71.0	0.957	blue	4.0	task_switch	color	switch	stim	poldrack-single-stim	s649	0	False
408.786	1.0	410.169	0.9	2.408	True	71.0	Color	stay	twobytwo	71.0	0.483	blue	8.0	cue_stay	color	stay	stim	poldrack-single-stim	s649	0	False
412.099	1.0	413.676	0.9	2.136	True	89.0	High-Low	n/a	twobytwo	89.0	0.677	blue	6.0	task_switch	magnitude	switch	stim	poldrack-single-stim	s649	0	False
415.141	1.0	416.554	0.9	2.0	True	89.0	High-Low	stay	twobytwo	89.0	0.513	orange	6.0	cue_stay	magnitude	stay	stim	poldrack-single-stim	s649	0	False
418.046	1.0	419.48	0.9	2.0	True	89.0	Magnitude	switch	twobytwo	89.0	0.534	orange	6.0	cue_switch	magnitude	stay	stim	poldrack-single-stim	s649	0	False
420.952	1.0	422.461	0.9	2.544	True	89.0	Magnitude	stay	twobytwo	89.0	0.609	orange	9.0	cue_stay	magnitude	stay	stim	poldrack-single-stim	s649	0	False
424.401	1.0	425.995	0.9	2.136	True	71.0	Magnitude	stay	twobytwo	71.0	0.694	orange	3.0	cue_stay	magnitude	stay	stim	poldrack-single-stim	s649	0	False
426.644	1.0	427.725	0.1	2.544	True	89.0	Color	n/a	twobytwo	89.0	0.981	orange	9.0	task_switch	color	switch	stim	poldrack-single-stim	s649	0	False
430.092	1.0	431.704	0.9	2.68	True	89.0	Magnitude	n/a	twobytwo	89.0	0.712	blue	7.0	task_switch	magnitude	switch	stim	poldrack-single-stim	s649	0	False
432.878	1.0	433.824	0.1	2.0	True	71.0	Magnitude	stay	twobytwo	71.0	0.846	blue	4.0	cue_stay	magnitude	stay	stim	poldrack-single-stim	s649	0	False
435.782	1.0	437.273	0.9	2.272	True	71.0	High-Low	switch	twobytwo	71.0	0.591	blue	3.0	cue_switch	magnitude	stay	stim	poldrack-single-stim	s649	0	False
438.959	1.0	440.868	0.9	3.088	True	71.0	High-Low	stay	twobytwo	71.0	1.009	orange	4.0	cue_stay	magnitude	stay	stim	poldrack-single-stim	s649	0	False
442.152	1.0	442.829	0.1	2.0	True	71.0	Color	n/a	twobytwo	71.0	0.577	blue	3.0	task_switch	color	switch	stim	poldrack-single-stim	s649	0	False
445.056	1.0	446.729	0.9	2.136	True	89.0	Orange-Blue	switch	twobytwo	89.0	0.773	orange	1.0	cue_switch	color	stay	stim	poldrack-single-stim	s649	0	False
447.297	1.0	447.945	0.1	2.136	True	89.0	Color	switch	twobytwo	89.0	0.548	orange	3.0	cue_switch	color	stay	stim	poldrack-single-stim	s649	0	False
449.537	1.0	450.338	0.1	2.0	True	89.0	High-Low	n/a	twobytwo	89.0	0.701	blue	7.0	task_switch	magnitude	switch	stim	poldrack-single-stim	s649	0	False
451.643	1.0	452.698	0.1	2.272	False	89.0	Orange-Blue	n/a	twobytwo	71.0	0.955	orange	1.0	task_switch	color	switch	stim	poldrack-single-stim	s649	0	False
454.021	1.0	455.284	0.1	2.0	True	89.0	Magnitude	n/a	twobytwo	89.0	1.163	blue	9.0	task_switch	magnitude	switch	stim	poldrack-single-stim	s649	0	False
469.637	1.0	470.975	0.1	2.136	True	89.0	Color	stay	twobytwo	89.0	1.238	orange	7.0	cue_stay	color	stay	stim	poldrack-single-stim	s649	1	False
472.678	1.0	474.14	0.9	2.136	True	89.0	Magnitude	n/a	twobytwo	89.0	0.562	orange	7.0	task_switch	magnitude	switch	stim	poldrack-single-stim	s649	0	False
475.719	1.0	477.451	0.9	2.544	True	71.0	Orange-Blue	n/a	twobytwo	71.0	0.832	blue	2.0	task_switch	color	switch	stim	poldrack-single-stim	s649	0	False
479.169	1.0	480.544	0.9	2.0	False	71.0	High-Low	n/a	twobytwo	89.0	0.475	orange	1.0	task_switch	magnitude	switch	stim	poldrack-single-stim	s649	0	False
481.274	1.0	482.373	0.1	2.136	False	71.0	Color	n/a	twobytwo	89.0	0.999	blue	6.0	task_switch	color	switch	stim	poldrack-single-stim	s649	0	False
484.315	1.0	485.967	0.9	2.136	True	71.0	Color	stay	twobytwo	71.0	0.752	blue	8.0	cue_stay	color	stay	stim	poldrack-single-stim	s649	0	False
487.357	1.0	489.795	0.9	2.136	True	71.0	Orange-Blue	switch	twobytwo	71.0	1.538	blue	2.0	cue_switch	color	stay	stim	poldrack-single-stim	s649	0	False
490.398	1.0	491.934	0.9	2.0	True	89.0	Color	switch	twobytwo	89.0	0.636	orange	1.0	cue_switch	color	stay	stim	poldrack-single-stim	s649	0	False
493.303	1.0	495.442	0.9	2.136	True	71.0	High-Low	n/a	twobytwo	71.0	1.239	blue	4.0	task_switch	magnitude	switch	stim	poldrack-single-stim	s649	0	False
495.545	1.0	496.511	0.1	2.0	True	89.0	Orange-Blue	n/a	twobytwo	89.0	0.866	orange	8.0	task_switch	color	switch	stim	poldrack-single-stim	s649	0	False
498.45	1.0	499.89	0.9	2.136	True	71.0	High-Low	n/a	twobytwo	71.0	0.54	blue	2.0	task_switch	magnitude	switch	stim	poldrack-single-stim	s649	0	False
500.691	1.0	502.609	0.1	2.816	True	89.0	Magnitude	switch	twobytwo	89.0	1.818	blue	7.0	cue_switch	magnitude	stay	stim	poldrack-single-stim	s649	0	False
504.413	1.0	505.722	0.9	2.136	True	89.0	Orange-Blue	n/a	twobytwo	89.0	0.409	orange	9.0	task_switch	color	switch	stim	poldrack-single-stim	s649	0	False
506.654	1.0	507.693	0.1	2.0	True	71.0	High-Low	n/a	twobytwo	71.0	0.939	orange	1.0	task_switch	magnitude	switch	stim	poldrack-single-stim	s649	0	False
509.558	1.0	511.008	0.9	2.0	True	89.0	Magnitude	switch	twobytwo	89.0	0.55	blue	9.0	cue_switch	magnitude	stay	stim	poldrack-single-stim	s649	0	False
512.463	1.0	513.852	0.9	2.272	False	71.0	Orange-Blue	n/a	twobytwo	89.0	0.489	blue	7.0	task_switch	color	switch	stim	poldrack-single-stim	s649	0	False
514.839	1.0	515.454	0.1	2.0	False	71.0	Color	switch	twobytwo	89.0	0.515	blue	8.0	cue_switch	color	stay	stim	poldrack-single-stim	s649	0	False
517.744	1.0	519.206	0.9	2.0	True	71.0	High-Low	n/a	twobytwo	71.0	0.562	blue	4.0	task_switch	magnitude	switch	stim	poldrack-single-stim	s649	0	False
520.649	1.0	522.35	0.9	2.0	False	89.0	Color	n/a	twobytwo	71.0	0.801	orange	2.0	task_switch	color	switch	stim	poldrack-single-stim	s649	0	False
523.555	1.0	524.957	0.9	2.408	True	71.0	Color	stay	twobytwo	71.0	0.502	blue	9.0	cue_stay	color	stay	stim	poldrack-single-stim	s649	0	False
526.068	1.0	526.734	0.1	2.272	True	89.0	Magnitude	n/a	twobytwo	89.0	0.566	blue	7.0	task_switch	magnitude	switch	stim	poldrack-single-stim	s649	0	False
529.245	1.0	531.54	0.9	2.136	True	89.0	Orange-Blue	n/a	twobytwo	89.0	1.395	orange	2.0	task_switch	color	switch	stim	poldrack-single-stim	s649	0	False
531.485	1.0	531.484	0.1	2.0	False	71.0	Orange-Blue	stay	twobytwo	-1.0	n/a	blue	2.0	cue_stay	color	stay	stim	poldrack-single-stim	s649	0	False
534.391	1.0	535.985	0.9	2.0	True	71.0	High-Low	n/a	twobytwo	71.0	0.694	orange	3.0	task_switch	magnitude	switch	stim	poldrack-single-stim	s649	0	False
537.296	1.0	538.828	0.9	2.136	True	89.0	Magnitude	switch	twobytwo	89.0	0.632	blue	6.0	cue_switch	magnitude	stay	stim	poldrack-single-stim	s649	0	False
539.538	1.0	540.746	0.1	2.0	True	71.0	Magnitude	stay	twobytwo	71.0	1.108	orange	3.0	cue_stay	magnitude	stay	stim	poldrack-single-stim	s649	0	False
541.643	1.0	542.537	0.1	2.136	True	89.0	Color	n/a	twobytwo	89.0	0.794	orange	9.0	task_switch	color	switch	stim	poldrack-single-stim	s649	0	False
543.886	1.0	544.895	0.1	2.408	True	89.0	Color	stay	twobytwo	89.0	0.909	orange	6.0	cue_stay	color	stay	stim	poldrack-single-stim	s649	0	False
547.2	1.0	548.785	0.9	2.136	True	71.0	High-Low	n/a	twobytwo	71.0	0.685	orange	2.0	task_switch	magnitude	switch	stim	poldrack-single-stim	s649	0	False
549.44	1.0	550.268	0.1	2.0	True	71.0	Magnitude	switch	twobytwo	71.0	0.728	orange	2.0	cue_switch	magnitude	stay	stim	poldrack-single-stim	s649	0	False
552.346	1.0	552.345	0.9	2.136	False	89.0	High-Low	switch	twobytwo	-1.0	n/a	orange	6.0	cue_switch	magnitude	stay	stim	poldrack-single-stim	s649	0	False
555.387	1.0	557.051	0.9	2.272	False	89.0	Orange-Blue	n/a	twobytwo	71.0	0.764	orange	2.0	task_switch	color	switch	stim	poldrack-single-stim	s649	0	False
557.765	1.0	558.776	0.1	2.0	False	89.0	High-Low	n/a	twobytwo	71.0	0.911	blue	9.0	task_switch	magnitude	switch	stim	poldrack-single-stim	s649	0	False
559.871	1.0	560.55	0.1	2.408	True	89.0	High-Low	stay	twobytwo	89.0	0.579	blue	9.0	cue_stay	magnitude	stay	stim	poldrack-single-stim	s649	0	False
563.184	1.0	564.663	0.9	2.0	True	89.0	High-Low	stay	twobytwo	89.0	0.579	blue	8.0	cue_stay	magnitude	stay	stim	poldrack-single-stim	s649	0	False
566.09	1.0	567.524	0.9	2.136	False	89.0	Orange-Blue	n/a	twobytwo	71.0	0.534	orange	3.0	task_switch	color	switch	stim	poldrack-single-stim	s649	0	False
568.331	1.0	568.33	0.1	2.408	False	89.0	High-Low	n/a	twobytwo	-1.0	n/a	blue	9.0	task_switch	magnitude	switch	stim	poldrack-single-stim	s649	0	False
571.643	1.0	572.981	0.9	2.136	True	89.0	Color	n/a	twobytwo	89.0	0.438	orange	2.0	task_switch	color	switch	stim	poldrack-single-stim	s649	0	False
573.883	1.0	574.805	0.1	2.408	True	71.0	Magnitude	n/a	twobytwo	71.0	0.822	orange	3.0	task_switch	magnitude	switch	stim	poldrack-single-stim	s649	0	False
576.396	1.0	577.257	0.1	2.136	True	71.0	High-Low	switch	twobytwo	71.0	0.761	orange	1.0	cue_switch	magnitude	stay	stim	poldrack-single-stim	s649	0	False
578.636	1.0	579.322	0.1	2.0	True	89.0	Orange-Blue	n/a	twobytwo	89.0	0.586	orange	9.0	task_switch	color	switch	stim	poldrack-single-stim	s649	0	False
580.741	1.0	581.661	0.1	2.272	False	89.0	Orange-Blue	stay	twobytwo	71.0	0.82	orange	3.0	cue_stay	color	stay	stim	poldrack-single-stim	s649	0	False
583.918	1.0	585.581	0.9	2.0	True	71.0	Orange-Blue	stay	twobytwo	71.0	0.763	blue	3.0	cue_stay	color	stay	stim	poldrack-single-stim	s649	0	False
586.023	1.0	586.668	0.1	2.272	True	89.0	Orange-Blue	stay	twobytwo	89.0	0.545	orange	8.0	cue_stay	color	stay	stim	poldrack-single-stim	s649	0	False
589.2	1.0	590.65	0.9	2.272	True	71.0	Color	switch	twobytwo	71.0	0.55	blue	4.0	cue_switch	color	stay	stim	poldrack-single-stim	s649	0	False
591.577	1.0	592.846	0.1	2.952	False	89.0	Magnitude	n/a	twobytwo	71.0	1.169	blue	7.0	task_switch	magnitude	switch	stim	poldrack-single-stim	s649	0	False
595.435	1.0	597.288	0.9	2.68	True	89.0	Color	n/a	twobytwo	89.0	0.953	orange	9.0	task_switch	color	switch	stim	poldrack-single-stim	s649	0	False
599.02	1.0	600.716	0.9	2.136	False	89.0	Color	stay	twobytwo	71.0	0.796	orange	2.0	cue_stay	color	stay	stim	poldrack-single-stim	s649	0	False
601.262	1.0	602.089	0.1	2.272	False	71.0	Color	stay	twobytwo	89.0	0.727	blue	1.0	cue_stay	color	stay	stim	poldrack-single-stim	s649	0	False
604.439	1.0	606.031	0.9	2.272	True	71.0	High-Low	n/a	twobytwo	71.0	0.692	blue	3.0	task_switch	magnitude	switch	stim	poldrack-single-stim	s649	0	False
606.816	1.0	608.487	0.1	2.136	True	71.0	Color	n/a	twobytwo	71.0	1.571	blue	4.0	task_switch	color	switch	stim	poldrack-single-stim	s649	0	False
609.856	1.0	611.384	0.9	2.408	False	89.0	Color	stay	twobytwo	71.0	0.628	orange	2.0	cue_stay	color	stay	stim	poldrack-single-stim	s649	0	False
613.17	1.0	614.738	0.9	2.136	True	89.0	High-Low	n/a	twobytwo	89.0	0.668	blue	9.0	task_switch	magnitude	switch	stim	poldrack-single-stim	s649	0	False
616.212	1.0	617.646	0.9	2.136	True	71.0	Magnitude	switch	twobytwo	71.0	0.534	orange	3.0	cue_switch	magnitude	stay	stim	poldrack-single-stim	s649	0	False
619.254	1.0	621.302	0.9	2.0	True	71.0	Color	n/a	twobytwo	71.0	1.148	blue	2.0	task_switch	color	switch	stim	poldrack-single-stim	s649	0	False
621.357	1.0	622.344	0.1	2.0	True	71.0	Color	stay	twobytwo	71.0	0.887	blue	2.0	cue_stay	color	stay	stim	poldrack-single-stim	s649	0	False
623.463	1.0	624.521	0.1	2.0	True	71.0	Orange-Blue	switch	twobytwo	71.0	0.958	blue	8.0	cue_switch	color	stay	stim	poldrack-single-stim	s649	0	False
626.368	1.0	628.118	0.9	2.0	True	89.0	Orange-Blue	stay	twobytwo	89.0	0.85	orange	9.0	cue_stay	color	stay	stim	poldrack-single-stim	s649	0	False
628.473	1.0	629.762	0.1	2.0	True	71.0	High-Low	n/a	twobytwo	71.0	1.189	orange	2.0	task_switch	magnitude	switch	stim	poldrack-single-stim	s649	0	False
630.579	1.0	631.464	0.1	2.272	True	89.0	Orange-Blue	n/a	twobytwo	89.0	0.785	orange	7.0	task_switch	color	switch	stim	poldrack-single-stim	s649	0	False
633.756	1.0	635.183	0.9	2.408	True	89.0	Color	switch	twobytwo	89.0	0.527	orange	4.0	cue_switch	color	stay	stim	poldrack-single-stim	s649	0	False
636.27	1.0	637.166	0.1	2.0	True	89.0	High-Low	n/a	twobytwo	89.0	0.796	blue	6.0	task_switch	magnitude	switch	stim	poldrack-single-stim	s649	0	False
639.176	1.0	640.675	0.9	2.136	True	71.0	Orange-Blue	n/a	twobytwo	71.0	0.599	blue	4.0	task_switch	color	switch	stim	poldrack-single-stim	s649	0	False
642.217	1.0	644.408	0.9	2.0	True	71.0	Orange-Blue	stay	twobytwo	71.0	1.291	blue	8.0	cue_stay	color	stay	stim	poldrack-single-stim	s649	0	False
645.123	1.0	646.738	0.9	2.136	True	89.0	Magnitude	n/a	twobytwo	89.0	0.715	blue	6.0	task_switch	magnitude	switch	stim	poldrack-single-stim	s649	0	False
648.164	1.0	650.115	0.9	2.544	True	89.0	Magnitude	stay	twobytwo	89.0	1.051	orange	6.0	cue_stay	magnitude	stay	stim	poldrack-single-stim	s649	0	False
651.614	1.0	653.113	0.9	2.68	True	89.0	High-Low	switch	twobytwo	89.0	0.599	orange	6.0	cue_switch	magnitude	stay	stim	poldrack-single-stim	s649	0	False
655.199	1.0	656.745	0.9	3.088	True	89.0	High-Low	stay	twobytwo	89.0	0.646	orange	9.0	cue_stay	magnitude	stay	stim	poldrack-single-stim	s649	0	False
659.192	1.0	660.682	0.9	2.136	True	71.0	High-Low	stay	twobytwo	71.0	0.59	orange	3.0	cue_stay	magnitude	stay	stim	poldrack-single-stim	s649	0	False
661.434	1.0	662.262	0.1	2.544	True	89.0	Orange-Blue	n/a	twobytwo	89.0	0.728	orange	9.0	task_switch	color	switch	stim	poldrack-single-stim	s649	0	False
664.883	1.0	666.242	0.9	2.0	True	89.0	Magnitude	n/a	twobytwo	89.0	0.459	blue	7.0	task_switch	magnitude	switch	stim	poldrack-single-stim	s649	0	False
666.988	1.0	667.741	0.1	2.136	True	71.0	Magnitude	stay	twobytwo	71.0	0.653	blue	4.0	cue_stay	magnitude	stay	stim	poldrack-single-stim	s649	0	False
670.03	1.0	671.482	0.9	2.0	True	71.0	High-Low	switch	twobytwo	71.0	0.552	blue	3.0	cue_switch	magnitude	stay	stim	poldrack-single-stim	s649	0	False
672.936	1.0	674.491	0.9	2.408	True	71.0	High-Low	stay	twobytwo	71.0	0.655	orange	4.0	cue_stay	magnitude	stay	stim	poldrack-single-stim	s649	0	False
675.45	1.0	676.18	0.1	2.0	True	71.0	Orange-Blue	n/a	twobytwo	71.0	0.63	blue	3.0	task_switch	color	switch	stim	poldrack-single-stim	s649	0	False
678.354	1.0	679.658	0.9	2.0	True	89.0	Color	switch	twobytwo	89.0	0.404	orange	1.0	cue_switch	color	stay	stim	poldrack-single-stim	s649	0	False
680.46	1.0	681.833	0.1	2.0	True	89.0	Orange-Blue	switch	twobytwo	89.0	1.273	orange	3.0	cue_switch	color	stay	stim	poldrack-single-stim	s649	0	False
682.565	1.0	683.33	0.1	2.68	True	89.0	Magnitude	n/a	twobytwo	89.0	0.665	blue	7.0	task_switch	magnitude	switch	stim	poldrack-single-stim	s649	0	False
685.351	1.0	686.271	0.1	2.272	True	89.0	Orange-Blue	n/a	twobytwo	89.0	0.82	orange	1.0	task_switch	color	switch	stim	poldrack-single-stim	s649	0	False
687.727	1.0	688.581	0.1	2.408	True	89.0	High-Low	n/a	twobytwo	89.0	0.754	blue	9.0	task_switch	magnitude	switch	stim	poldrack-single-stim	s649	0	False
