onset	duration	movement_onset	block_duration	condition	correct	correct_response	experiment_exp_id	key_press	response_time	trial_id	trial_type	worker_id	junk
3.01	0.5	3.009	0.5	AX	n/a	n/a	dot_pattern_expectancy	-1.0	n/a	cue	AX	s650	False
5.514	0.5	5.513	1.772	AX	0.0	89.0	dot_pattern_expectancy	-1.0	n/a	probe	AX	s650	False
7.289	0.5	7.288	0.5	AX	n/a	n/a	dot_pattern_expectancy	-1.0	n/a	cue	AX	s650	False
9.792	0.5	9.791	1.5	AX	0.0	89.0	dot_pattern_expectancy	-1.0	n/a	probe	AX	s650	False
11.295	0.5	11.294	0.5	AY	n/a	n/a	dot_pattern_expectancy	-1.0	n/a	cue	AY	s650	False
13.8	0.5	13.799	2.452	AY	0.0	71.0	dot_pattern_expectancy	-1.0	n/a	probe	AY	s650	False
16.253	0.5	16.252	0.5	AY	n/a	n/a	dot_pattern_expectancy	-1.0	n/a	cue	AY	s650	False
18.757	0.5	18.756	1.772	AY	0.0	71.0	dot_pattern_expectancy	-1.0	n/a	probe	AY	s650	False
20.532	0.5	20.531	0.5	AX	n/a	n/a	dot_pattern_expectancy	-1.0	n/a	cue	AX	s650	False
23.037	0.5	23.036	1.908	AX	0.0	89.0	dot_pattern_expectancy	-1.0	n/a	probe	AX	s650	False
24.947	0.5	24.946	0.5	AX	n/a	n/a	dot_pattern_expectancy	-1.0	n/a	cue	AX	s650	False
27.452	0.5	27.451	1.908	AX	0.0	89.0	dot_pattern_expectancy	-1.0	n/a	probe	AX	s650	False
29.362	0.5	29.361	0.5	AX	n/a	n/a	dot_pattern_expectancy	-1.0	n/a	cue	AX	s650	False
31.866	0.5	31.865	2.588	AX	0.0	89.0	dot_pattern_expectancy	-1.0	n/a	probe	AX	s650	False
34.457	0.5	34.456	0.5	AY	n/a	n/a	dot_pattern_expectancy	-1.0	n/a	cue	AY	s650	False
36.962	0.5	36.961	1.5	AY	0.0	71.0	dot_pattern_expectancy	-1.0	n/a	probe	AY	s650	False
38.465	0.5	38.464	0.5	BY	n/a	n/a	dot_pattern_expectancy	-1.0	n/a	cue	BY	s650	False
40.969	0.5	40.968	1.5	BY	0.0	71.0	dot_pattern_expectancy	-1.0	n/a	probe	BY	s650	False
42.471	0.5	42.47	0.5	BY	n/a	n/a	dot_pattern_expectancy	-1.0	n/a	cue	BY	s650	False
44.976	0.5	44.975	1.5	BY	0.0	71.0	dot_pattern_expectancy	-1.0	n/a	probe	BY	s650	False
46.479	0.5	46.478	0.5	AX	n/a	n/a	dot_pattern_expectancy	-1.0	n/a	cue	AX	s650	False
48.983	0.5	48.982	1.636	AX	0.0	89.0	dot_pattern_expectancy	-1.0	n/a	probe	AX	s650	False
50.621	0.5	50.62	0.5	BX	n/a	n/a	dot_pattern_expectancy	-1.0	n/a	cue	BX	s650	False
53.124	0.5	53.123	2.044	BX	0.0	71.0	dot_pattern_expectancy	-1.0	n/a	probe	BX	s650	False
55.171	0.5	55.17	0.5	AX	n/a	n/a	dot_pattern_expectancy	-1.0	n/a	cue	AX	s650	False
57.676	0.5	57.675	1.772	AX	0.0	89.0	dot_pattern_expectancy	-1.0	n/a	probe	AX	s650	False
59.451	0.5	59.45	0.5	BX	n/a	n/a	dot_pattern_expectancy	-1.0	n/a	cue	BX	s650	False
61.955	0.5	61.954	2.588	BX	0.0	71.0	dot_pattern_expectancy	-1.0	n/a	probe	BX	s650	False
64.545	0.5	64.544	0.5	AY	n/a	n/a	dot_pattern_expectancy	-1.0	n/a	cue	AY	s650	False
67.049	0.5	67.048	1.5	AY	0.0	71.0	dot_pattern_expectancy	-1.0	n/a	probe	AY	s650	False
68.552	0.5	68.551	0.5	AX	n/a	n/a	dot_pattern_expectancy	-1.0	n/a	cue	AX	s650	False
71.057	0.5	71.056	2.452	AX	0.0	89.0	dot_pattern_expectancy	-1.0	n/a	probe	AX	s650	False
73.51	0.5	73.509	0.5	BY	n/a	n/a	dot_pattern_expectancy	-1.0	n/a	cue	BY	s650	False
76.015	0.5	76.014	1.636	BY	0.0	71.0	dot_pattern_expectancy	-1.0	n/a	probe	BY	s650	False
77.654	0.5	77.653	0.5	AX	n/a	n/a	dot_pattern_expectancy	-1.0	n/a	cue	AX	s650	False
80.159	0.5	80.158	1.636	AX	0.0	89.0	dot_pattern_expectancy	-1.0	n/a	probe	AX	s650	False
81.798	0.5	81.797	0.5	AX	n/a	n/a	dot_pattern_expectancy	-1.0	n/a	cue	AX	s650	False
84.301	0.5	84.3	1.5	AX	0.0	89.0	dot_pattern_expectancy	-1.0	n/a	probe	AX	s650	False
85.803	0.5	85.802	0.5	BY	n/a	n/a	dot_pattern_expectancy	-1.0	n/a	cue	BY	s650	False
88.308	0.5	88.307	1.636	BY	0.0	71.0	dot_pattern_expectancy	-1.0	n/a	probe	BY	s650	False
89.947	0.5	89.946	0.5	AX	n/a	n/a	dot_pattern_expectancy	-1.0	n/a	cue	AX	s650	False
92.451	0.5	92.45	1.5	AX	0.0	89.0	dot_pattern_expectancy	-1.0	n/a	probe	AX	s650	False
93.954	0.5	93.953	0.5	AY	n/a	n/a	dot_pattern_expectancy	-1.0	n/a	cue	AY	s650	False
96.459	0.5	96.458	2.18	AY	0.0	71.0	dot_pattern_expectancy	-1.0	n/a	probe	AY	s650	False
98.641	0.5	98.64	0.5	AX	n/a	n/a	dot_pattern_expectancy	-1.0	n/a	cue	AX	s650	False
101.144	0.5	101.143	1.5	AX	0.0	89.0	dot_pattern_expectancy	-1.0	n/a	probe	AX	s650	False
102.647	0.5	102.646	0.5	AX	n/a	n/a	dot_pattern_expectancy	-1.0	n/a	cue	AX	s650	False
105.152	0.5	105.151	1.908	AX	0.0	89.0	dot_pattern_expectancy	-1.0	n/a	probe	AX	s650	False
107.061	0.5	107.06	0.5	BY	n/a	n/a	dot_pattern_expectancy	-1.0	n/a	cue	BY	s650	False
109.566	0.5	110.986	1.636	BY	1.0	71.0	dot_pattern_expectancy	71.0	1.42	probe	BY	s650	False
111.205	0.5	111.204	0.5	BY	n/a	n/a	dot_pattern_expectancy	-1.0	n/a	cue	BY	s650	False
113.709	0.5	115.341	1.636	BY	1.0	71.0	dot_pattern_expectancy	71.0	1.632	probe	BY	s650	False
115.348	0.5	115.347	0.5	AX	n/a	n/a	dot_pattern_expectancy	-1.0	n/a	cue	AX	s650	False
117.853	0.5	118.258	1.636	AX	1.0	89.0	dot_pattern_expectancy	89.0	0.405	probe	AX	s650	False
119.492	0.5	119.491	0.5	AX	n/a	n/a	dot_pattern_expectancy	-1.0	n/a	cue	AX	s650	False
121.996	0.5	121.995	1.5	AX	0.0	89.0	dot_pattern_expectancy	-1.0	n/a	probe	AX	s650	False
123.498	0.5	123.497	0.5	BY	n/a	n/a	dot_pattern_expectancy	-1.0	n/a	cue	BY	s650	False
126.002	0.5	126.317	2.044	BY	1.0	71.0	dot_pattern_expectancy	71.0	0.315	probe	BY	s650	False
128.047	0.5	128.046	0.5	AY	n/a	n/a	dot_pattern_expectancy	-1.0	n/a	cue	AY	s650	False
130.554	0.5	131.207	2.18	AY	1.0	71.0	dot_pattern_expectancy	71.0	0.653	probe	AY	s650	False
132.735	0.5	132.734	0.5	AY	n/a	n/a	dot_pattern_expectancy	-1.0	n/a	cue	AY	s650	False
135.24	0.5	136.004	1.636	AY	0.0	71.0	dot_pattern_expectancy	89.0	0.764	probe	AY	s650	False
136.878	0.5	136.877	0.5	AY	n/a	n/a	dot_pattern_expectancy	-1.0	n/a	cue	AY	s650	False
139.383	0.5	140.33	1.772	AY	1.0	71.0	dot_pattern_expectancy	71.0	0.947	probe	AY	s650	False
141.156	0.5	141.155	0.5	BY	n/a	n/a	dot_pattern_expectancy	-1.0	n/a	cue	BY	s650	False
143.66	0.5	144.71	1.5	BY	1.0	71.0	dot_pattern_expectancy	71.0	1.05	probe	BY	s650	False
145.163	0.5	145.162	0.5	BX	n/a	n/a	dot_pattern_expectancy	-1.0	n/a	cue	BX	s650	False
147.668	0.5	147.667	1.908	BX	0.0	71.0	dot_pattern_expectancy	-1.0	n/a	probe	BX	s650	False
149.579	0.5	149.578	0.5	AX	n/a	n/a	dot_pattern_expectancy	-1.0	n/a	cue	AX	s650	False
152.084	0.5	152.521	2.044	AX	1.0	89.0	dot_pattern_expectancy	89.0	0.437	probe	AX	s650	False
154.13	0.5	154.129	0.5	AX	n/a	n/a	dot_pattern_expectancy	-1.0	n/a	cue	AX	s650	False
156.634	0.5	156.933	1.636	AX	1.0	89.0	dot_pattern_expectancy	89.0	0.299	probe	AX	s650	False
158.273	0.5	158.272	0.5	AX	n/a	n/a	dot_pattern_expectancy	-1.0	n/a	cue	AX	s650	False
160.778	0.5	161.137	1.772	AX	1.0	89.0	dot_pattern_expectancy	89.0	0.359	probe	AX	s650	False
162.552	0.5	162.551	0.5	AX	n/a	n/a	dot_pattern_expectancy	-1.0	n/a	cue	AX	s650	False
165.057	0.5	165.39	1.636	AX	1.0	89.0	dot_pattern_expectancy	89.0	0.333	probe	AX	s650	False
166.696	0.5	166.695	0.5	BX	n/a	n/a	dot_pattern_expectancy	-1.0	n/a	cue	BX	s650	False
169.2	0.5	169.347	1.772	BX	1.0	71.0	dot_pattern_expectancy	71.0	0.147	probe	BX	s650	False
170.974	0.5	170.973	0.5	AX	n/a	n/a	dot_pattern_expectancy	-1.0	n/a	cue	AX	s650	False
173.478	0.5	173.781	1.5	AX	1.0	89.0	dot_pattern_expectancy	89.0	0.303	probe	AX	s650	False
185.488	0.5	185.487	0.5	BY	n/a	n/a	dot_pattern_expectancy	-1.0	n/a	cue	BY	s650	False
187.993	0.5	188.311	1.636	BY	1.0	71.0	dot_pattern_expectancy	71.0	0.318	probe	BY	s650	False
189.632	0.5	189.631	0.5	AY	n/a	n/a	dot_pattern_expectancy	-1.0	n/a	cue	AY	s650	False
192.137	0.5	192.92	1.5	AY	0.0	71.0	dot_pattern_expectancy	89.0	0.783	probe	AY	s650	False
193.639	0.5	193.638	0.5	AX	n/a	n/a	dot_pattern_expectancy	-1.0	n/a	cue	AX	s650	False
196.143	0.5	196.538	2.044	AX	0.0	89.0	dot_pattern_expectancy	71.0	0.395	probe	AX	s650	False
198.189	0.5	198.188	0.5	BY	n/a	n/a	dot_pattern_expectancy	-1.0	n/a	cue	BY	s650	False
200.692	0.5	200.97	1.772	BY	1.0	71.0	dot_pattern_expectancy	71.0	0.278	probe	BY	s650	False
202.468	0.5	202.467	0.5	BX	n/a	n/a	dot_pattern_expectancy	-1.0	n/a	cue	BX	s650	False
204.973	0.5	205.189	1.636	BX	1.0	71.0	dot_pattern_expectancy	71.0	0.216	probe	BX	s650	False
206.611	0.5	206.61	0.5	AX	n/a	n/a	dot_pattern_expectancy	-1.0	n/a	cue	AX	s650	False
209.116	0.5	209.428	1.636	AX	1.0	89.0	dot_pattern_expectancy	89.0	0.312	probe	AX	s650	False
210.754	0.5	210.753	0.5	AX	n/a	n/a	dot_pattern_expectancy	-1.0	n/a	cue	AX	s650	False
213.26	0.5	213.911	1.5	AX	1.0	89.0	dot_pattern_expectancy	89.0	0.651	probe	AX	s650	False
214.763	0.5	214.762	0.5	AX	n/a	n/a	dot_pattern_expectancy	-1.0	n/a	cue	AX	s650	False
217.267	0.5	217.617	1.5	AX	1.0	89.0	dot_pattern_expectancy	89.0	0.35	probe	AX	s650	False
218.768	0.5	218.767	0.5	AY	n/a	n/a	dot_pattern_expectancy	-1.0	n/a	cue	AY	s650	False
221.273	0.5	221.849	2.044	AY	1.0	71.0	dot_pattern_expectancy	71.0	0.576	probe	AY	s650	False
223.319	0.5	223.318	0.5	AX	n/a	n/a	dot_pattern_expectancy	-1.0	n/a	cue	AX	s650	False
225.823	0.5	225.86	2.452	AX	1.0	89.0	dot_pattern_expectancy	89.0	0.037	probe	AX	s650	False
228.278	0.5	228.277	0.5	AX	n/a	n/a	dot_pattern_expectancy	-1.0	n/a	cue	AX	s650	False
230.783	0.5	231.428	1.908	AX	1.0	89.0	dot_pattern_expectancy	89.0	0.645	probe	AX	s650	False
232.693	0.5	232.692	0.5	AX	n/a	n/a	dot_pattern_expectancy	-1.0	n/a	cue	AX	s650	False
235.198	0.5	235.375	1.5	AX	1.0	89.0	dot_pattern_expectancy	89.0	0.177	probe	AX	s650	False
236.701	0.5	236.7	0.5	AX	n/a	n/a	dot_pattern_expectancy	-1.0	n/a	cue	AX	s650	False
239.206	0.5	239.531	1.908	AX	1.0	89.0	dot_pattern_expectancy	89.0	0.325	probe	AX	s650	False
241.116	0.5	241.115	0.5	BX	n/a	n/a	dot_pattern_expectancy	-1.0	n/a	cue	BX	s650	False
243.62	0.5	243.619	2.18	BX	0.0	71.0	dot_pattern_expectancy	-1.0	n/a	probe	BX	s650	False
245.803	0.5	245.802	0.5	AX	n/a	n/a	dot_pattern_expectancy	-1.0	n/a	cue	AX	s650	False
248.307	0.5	248.591	1.5	AX	0.0	89.0	dot_pattern_expectancy	71.0	0.284	probe	AX	s650	False
249.809	0.5	249.808	0.5	BY	n/a	n/a	dot_pattern_expectancy	-1.0	n/a	cue	BY	s650	False
252.314	0.5	252.313	1.908	BY	0.0	71.0	dot_pattern_expectancy	-1.0	n/a	probe	BY	s650	False
254.224	0.5	254.223	0.5	BX	n/a	n/a	dot_pattern_expectancy	-1.0	n/a	cue	BX	s650	False
256.728	0.5	257.936	2.316	BX	1.0	71.0	dot_pattern_expectancy	71.0	1.208	probe	BX	s650	False
259.046	0.5	259.045	0.5	AY	n/a	n/a	dot_pattern_expectancy	-1.0	n/a	cue	AY	s650	False
261.55	0.5	262.235	2.316	AY	1.0	71.0	dot_pattern_expectancy	71.0	0.685	probe	AY	s650	False
263.869	0.5	263.868	0.5	BX	n/a	n/a	dot_pattern_expectancy	-1.0	n/a	cue	BX	s650	False
266.373	0.5	266.831	1.636	BX	1.0	71.0	dot_pattern_expectancy	71.0	0.458	probe	BX	s650	False
268.011	0.5	268.01	0.5	AY	n/a	n/a	dot_pattern_expectancy	-1.0	n/a	cue	AY	s650	False
270.516	0.5	271.117	1.5	AY	0.0	71.0	dot_pattern_expectancy	89.0	0.601	probe	AY	s650	False
272.019	0.5	272.018	0.5	BY	n/a	n/a	dot_pattern_expectancy	-1.0	n/a	cue	BY	s650	False
274.523	0.5	274.777	1.908	BY	1.0	71.0	dot_pattern_expectancy	71.0	0.254	probe	BY	s650	False
276.434	0.5	276.433	0.5	AX	n/a	n/a	dot_pattern_expectancy	-1.0	n/a	cue	AX	s650	False
278.939	0.5	279.445	1.5	AX	1.0	89.0	dot_pattern_expectancy	89.0	0.506	probe	AX	s650	False
280.441	0.5	280.44	0.5	AY	n/a	n/a	dot_pattern_expectancy	-1.0	n/a	cue	AY	s650	False
282.948	0.5	283.699	2.316	AY	1.0	71.0	dot_pattern_expectancy	71.0	0.751	probe	AY	s650	False
285.267	0.5	285.266	0.5	AX	n/a	n/a	dot_pattern_expectancy	-1.0	n/a	cue	AX	s650	False
287.771	0.5	288.297	1.5	AX	1.0	89.0	dot_pattern_expectancy	89.0	0.526	probe	AX	s650	False
289.273	0.5	289.272	0.5	AY	n/a	n/a	dot_pattern_expectancy	-1.0	n/a	cue	AY	s650	False
291.779	0.5	292.377	2.724	AY	1.0	71.0	dot_pattern_expectancy	71.0	0.598	probe	AY	s650	False
294.506	0.5	294.505	0.5	AX	n/a	n/a	dot_pattern_expectancy	-1.0	n/a	cue	AX	s650	False
297.01	0.5	297.526	1.5	AX	1.0	89.0	dot_pattern_expectancy	89.0	0.516	probe	AX	s650	False
298.512	0.5	298.511	0.5	AX	n/a	n/a	dot_pattern_expectancy	-1.0	n/a	cue	AX	s650	False
301.017	0.5	302.092	1.636	AX	1.0	89.0	dot_pattern_expectancy	89.0	1.075	probe	AX	s650	False
302.655	0.5	302.654	0.5	AX	n/a	n/a	dot_pattern_expectancy	-1.0	n/a	cue	AX	s650	False
305.158	0.5	306.147	1.636	AX	1.0	89.0	dot_pattern_expectancy	89.0	0.989	probe	AX	s650	False
306.797	0.5	306.796	0.5	AX	n/a	n/a	dot_pattern_expectancy	-1.0	n/a	cue	AX	s650	False
309.301	0.5	309.556	1.772	AX	1.0	89.0	dot_pattern_expectancy	89.0	0.255	probe	AX	s650	False
311.076	0.5	311.075	0.5	BY	n/a	n/a	dot_pattern_expectancy	-1.0	n/a	cue	BY	s650	False
313.58	0.5	313.579	1.772	BY	0.0	71.0	dot_pattern_expectancy	-1.0	n/a	probe	BY	s650	False
315.354	0.5	315.353	0.5	AX	n/a	n/a	dot_pattern_expectancy	-1.0	n/a	cue	AX	s650	False
317.859	0.5	318.336	1.5	AX	1.0	89.0	dot_pattern_expectancy	89.0	0.477	probe	AX	s650	False
319.362	0.5	319.361	0.5	BY	n/a	n/a	dot_pattern_expectancy	-1.0	n/a	cue	BY	s650	False
321.866	0.5	322.391	2.452	BY	1.0	71.0	dot_pattern_expectancy	71.0	0.525	probe	BY	s650	False
324.321	0.5	324.32	0.5	AX	n/a	n/a	dot_pattern_expectancy	-1.0	n/a	cue	AX	s650	False
326.824	0.5	327.937	1.636	AX	1.0	89.0	dot_pattern_expectancy	89.0	1.113	probe	AX	s650	False
328.462	0.5	328.461	0.5	AX	n/a	n/a	dot_pattern_expectancy	-1.0	n/a	cue	AX	s650	False
330.967	0.5	331.303	1.636	AX	1.0	89.0	dot_pattern_expectancy	89.0	0.336	probe	AX	s650	False
332.606	0.5	332.605	0.5	BX	n/a	n/a	dot_pattern_expectancy	-1.0	n/a	cue	BX	s650	False
335.11	0.5	335.592	1.5	BX	1.0	71.0	dot_pattern_expectancy	71.0	0.482	probe	BX	s650	False
336.611	0.5	336.61	0.5	BX	n/a	n/a	dot_pattern_expectancy	-1.0	n/a	cue	BX	s650	False
339.116	0.5	339.115	1.5	BX	0.0	71.0	dot_pattern_expectancy	-1.0	n/a	probe	BX	s650	False
340.619	0.5	340.618	0.5	AX	n/a	n/a	dot_pattern_expectancy	-1.0	n/a	cue	AX	s650	False
343.123	0.5	343.542	2.316	AX	1.0	89.0	dot_pattern_expectancy	89.0	0.419	probe	AX	s650	False
345.441	0.5	345.44	0.5	AY	n/a	n/a	dot_pattern_expectancy	-1.0	n/a	cue	AY	s650	False
347.945	0.5	348.341	2.044	AY	0.0	71.0	dot_pattern_expectancy	89.0	0.396	probe	AY	s650	False
349.992	0.5	349.991	0.5	AX	n/a	n/a	dot_pattern_expectancy	-1.0	n/a	cue	AX	s650	False
352.497	0.5	353.109	3.948	AX	1.0	89.0	dot_pattern_expectancy	89.0	0.612	probe	AX	s650	False
356.448	0.5	356.447	0.5	AX	n/a	n/a	dot_pattern_expectancy	-1.0	n/a	cue	AX	s650	False
358.951	0.5	359.428	1.636	AX	1.0	89.0	dot_pattern_expectancy	89.0	0.477	probe	AX	s650	False
371.098	0.5	371.097	0.5	AY	n/a	n/a	dot_pattern_expectancy	-1.0	n/a	cue	AY	s650	False
373.603	0.5	374.378	1.636	AY	1.0	71.0	dot_pattern_expectancy	71.0	0.775	probe	AY	s650	False
375.243	0.5	375.242	0.5	AX	n/a	n/a	dot_pattern_expectancy	-1.0	n/a	cue	AX	s650	False
377.747	0.5	378.142	1.636	AX	1.0	89.0	dot_pattern_expectancy	89.0	0.395	probe	AX	s650	False
379.385	0.5	379.384	0.5	AX	n/a	n/a	dot_pattern_expectancy	-1.0	n/a	cue	AX	s650	False
381.89	0.5	382.701	1.5	AX	1.0	89.0	dot_pattern_expectancy	89.0	0.811	probe	AX	s650	False
383.393	0.5	383.392	0.5	AX	n/a	n/a	dot_pattern_expectancy	-1.0	n/a	cue	AX	s650	False
385.897	0.5	385.896	1.5	AX	0.0	89.0	dot_pattern_expectancy	-1.0	n/a	probe	AX	s650	False
387.399	0.5	387.398	0.5	AX	n/a	n/a	dot_pattern_expectancy	-1.0	n/a	cue	AX	s650	False
389.904	0.5	390.335	1.908	AX	1.0	89.0	dot_pattern_expectancy	89.0	0.431	probe	AX	s650	False
391.814	0.5	391.813	0.5	BX	n/a	n/a	dot_pattern_expectancy	-1.0	n/a	cue	BX	s650	False
394.319	0.5	394.601	1.636	BX	1.0	71.0	dot_pattern_expectancy	71.0	0.282	probe	BX	s650	False
395.957	0.5	395.956	0.5	AX	n/a	n/a	dot_pattern_expectancy	-1.0	n/a	cue	AX	s650	False
398.461	0.5	398.766	2.044	AX	1.0	89.0	dot_pattern_expectancy	89.0	0.305	probe	AX	s650	False
400.508	0.5	400.507	0.5	AX	n/a	n/a	dot_pattern_expectancy	-1.0	n/a	cue	AX	s650	False
403.011	0.5	403.416	1.772	AX	1.0	89.0	dot_pattern_expectancy	89.0	0.405	probe	AX	s650	False
404.786	0.5	404.785	0.5	AX	n/a	n/a	dot_pattern_expectancy	-1.0	n/a	cue	AX	s650	False
407.291	0.5	407.74	1.5	AX	1.0	89.0	dot_pattern_expectancy	89.0	0.449	probe	AX	s650	False
408.794	0.5	408.793	0.5	AX	n/a	n/a	dot_pattern_expectancy	-1.0	n/a	cue	AX	s650	False
411.298	0.5	411.851	2.18	AX	1.0	89.0	dot_pattern_expectancy	89.0	0.553	probe	AX	s650	False
413.481	0.5	413.48	0.5	AX	n/a	n/a	dot_pattern_expectancy	-1.0	n/a	cue	AX	s650	False
415.986	0.5	416.292	1.5	AX	1.0	89.0	dot_pattern_expectancy	89.0	0.306	probe	AX	s650	False
417.488	0.5	417.487	0.5	BX	n/a	n/a	dot_pattern_expectancy	-1.0	n/a	cue	BX	s650	False
419.992	0.5	420.292	3.676	BX	1.0	71.0	dot_pattern_expectancy	71.0	0.3	probe	BX	s650	False
423.671	0.5	423.67	0.5	BY	n/a	n/a	dot_pattern_expectancy	-1.0	n/a	cue	BY	s650	False
426.175	0.5	426.174	1.636	BY	0.0	71.0	dot_pattern_expectancy	-1.0	n/a	probe	BY	s650	False
427.813	0.5	427.812	0.5	BY	n/a	n/a	dot_pattern_expectancy	-1.0	n/a	cue	BY	s650	False
430.318	0.5	431.807	1.636	BY	0.0	71.0	dot_pattern_expectancy	89.0	1.489	probe	BY	s650	False
431.957	0.5	431.956	0.5	BX	n/a	n/a	dot_pattern_expectancy	-1.0	n/a	cue	BX	s650	False
434.461	0.5	434.748	1.5	BX	1.0	71.0	dot_pattern_expectancy	71.0	0.287	probe	BX	s650	False
435.963	0.5	435.962	0.5	AX	n/a	n/a	dot_pattern_expectancy	-1.0	n/a	cue	AX	s650	False
438.467	0.5	439.731	1.908	AX	1.0	89.0	dot_pattern_expectancy	89.0	1.264	probe	AX	s650	False
440.378	0.5	440.377	0.5	AX	n/a	n/a	dot_pattern_expectancy	-1.0	n/a	cue	AX	s650	False
442.883	0.5	443.224	1.636	AX	1.0	89.0	dot_pattern_expectancy	89.0	0.341	probe	AX	s650	False
444.522	0.5	444.521	0.5	BX	n/a	n/a	dot_pattern_expectancy	-1.0	n/a	cue	BX	s650	False
447.026	0.5	447.025	1.5	BX	0.0	71.0	dot_pattern_expectancy	-1.0	n/a	probe	BX	s650	False
448.529	0.5	448.528	0.5	AX	n/a	n/a	dot_pattern_expectancy	-1.0	n/a	cue	AX	s650	False
451.034	0.5	451.399	1.908	AX	1.0	89.0	dot_pattern_expectancy	89.0	0.365	probe	AX	s650	False
452.944	0.5	452.943	0.5	BY	n/a	n/a	dot_pattern_expectancy	-1.0	n/a	cue	BY	s650	False
455.449	0.5	455.749	2.18	BY	1.0	71.0	dot_pattern_expectancy	71.0	0.3	probe	BY	s650	False
457.631	0.5	457.63	0.5	AX	n/a	n/a	dot_pattern_expectancy	-1.0	n/a	cue	AX	s650	False
460.136	0.5	460.534	1.772	AX	1.0	89.0	dot_pattern_expectancy	89.0	0.398	probe	AX	s650	False
461.911	0.5	461.91	0.5	AX	n/a	n/a	dot_pattern_expectancy	-1.0	n/a	cue	AX	s650	False
464.416	0.5	465.309	1.5	AX	1.0	89.0	dot_pattern_expectancy	89.0	0.893	probe	AX	s650	False
465.919	0.5	465.918	0.5	AX	n/a	n/a	dot_pattern_expectancy	-1.0	n/a	cue	AX	s650	False
468.423	0.5	469.184	1.5	AX	1.0	89.0	dot_pattern_expectancy	89.0	0.761	probe	AX	s650	False
469.925	0.5	469.924	0.5	AX	n/a	n/a	dot_pattern_expectancy	-1.0	n/a	cue	AX	s650	False
472.429	0.5	473.098	2.044	AX	1.0	89.0	dot_pattern_expectancy	89.0	0.669	probe	AX	s650	False
474.476	0.5	474.475	0.5	AX	n/a	n/a	dot_pattern_expectancy	-1.0	n/a	cue	AX	s650	False
476.981	0.5	477.478	2.86	AX	1.0	89.0	dot_pattern_expectancy	89.0	0.497	probe	AX	s650	False
479.844	0.5	479.843	0.5	BX	n/a	n/a	dot_pattern_expectancy	-1.0	n/a	cue	BX	s650	False
482.347	0.5	482.674	1.5	BX	1.0	71.0	dot_pattern_expectancy	71.0	0.327	probe	BX	s650	False
483.85	0.5	483.849	0.5	BY	n/a	n/a	dot_pattern_expectancy	-1.0	n/a	cue	BY	s650	False
486.355	0.5	486.617	1.772	BY	1.0	71.0	dot_pattern_expectancy	71.0	0.262	probe	BY	s650	False
488.13	0.5	488.129	0.5	AX	n/a	n/a	dot_pattern_expectancy	-1.0	n/a	cue	AX	s650	False
490.634	0.5	491.003	1.772	AX	1.0	89.0	dot_pattern_expectancy	89.0	0.369	probe	AX	s650	False
492.409	0.5	492.408	0.5	AX	n/a	n/a	dot_pattern_expectancy	-1.0	n/a	cue	AX	s650	False
494.912	0.5	495.302	2.86	AX	1.0	89.0	dot_pattern_expectancy	89.0	0.39	probe	AX	s650	False
497.775	0.5	497.774	0.5	AX	n/a	n/a	dot_pattern_expectancy	-1.0	n/a	cue	AX	s650	False
500.28	0.5	500.736	1.772	AX	1.0	89.0	dot_pattern_expectancy	89.0	0.456	probe	AX	s650	False
502.054	0.5	502.053	0.5	BX	n/a	n/a	dot_pattern_expectancy	-1.0	n/a	cue	BX	s650	False
504.557	0.5	505.046	1.636	BX	1.0	71.0	dot_pattern_expectancy	71.0	0.489	probe	BX	s650	False
506.196	0.5	506.195	0.5	BX	n/a	n/a	dot_pattern_expectancy	-1.0	n/a	cue	BX	s650	False
508.701	0.5	509.045	2.452	BX	1.0	71.0	dot_pattern_expectancy	71.0	0.344	probe	BX	s650	False
511.155	0.5	511.154	0.5	AX	n/a	n/a	dot_pattern_expectancy	-1.0	n/a	cue	AX	s650	False
513.66	0.5	513.989	1.636	AX	1.0	89.0	dot_pattern_expectancy	89.0	0.329	probe	AX	s650	False
515.298	0.5	515.297	0.5	BX	n/a	n/a	dot_pattern_expectancy	-1.0	n/a	cue	BX	s650	False
517.802	0.5	518.065	1.5	BX	1.0	71.0	dot_pattern_expectancy	71.0	0.263	probe	BX	s650	False
519.305	0.5	519.304	0.5	AX	n/a	n/a	dot_pattern_expectancy	-1.0	n/a	cue	AX	s650	False
521.81	0.5	522.1	1.636	AX	1.0	89.0	dot_pattern_expectancy	89.0	0.29	probe	AX	s650	False
523.448	0.5	523.447	0.5	AX	n/a	n/a	dot_pattern_expectancy	-1.0	n/a	cue	AX	s650	False
525.952	0.5	526.412	1.636	AX	1.0	89.0	dot_pattern_expectancy	89.0	0.46	probe	AX	s650	False
527.591	0.5	527.59	0.5	BY	n/a	n/a	dot_pattern_expectancy	-1.0	n/a	cue	BY	s650	False
530.096	0.5	530.095	2.18	BY	0.0	71.0	dot_pattern_expectancy	-1.0	n/a	probe	BY	s650	False
532.279	0.5	532.278	0.5	AX	n/a	n/a	dot_pattern_expectancy	-1.0	n/a	cue	AX	s650	False
534.783	0.5	535.657	1.5	AX	1.0	89.0	dot_pattern_expectancy	89.0	0.874	probe	AX	s650	False
536.286	0.5	536.285	0.5	AY	n/a	n/a	dot_pattern_expectancy	-1.0	n/a	cue	AY	s650	False
538.791	0.5	538.799	1.636	AY	0.0	71.0	dot_pattern_expectancy	89.0	0.008	probe	AY	s650	False
540.428	0.5	540.427	0.5	AX	n/a	n/a	dot_pattern_expectancy	-1.0	n/a	cue	AX	s650	False
542.932	0.5	544.039	1.636	AX	1.0	89.0	dot_pattern_expectancy	89.0	1.107	probe	AX	s650	False
555.077	0.5	555.076	0.5	AX	n/a	n/a	dot_pattern_expectancy	-1.0	n/a	cue	AX	s650	False
557.581	0.5	557.969	2.18	AX	1.0	89.0	dot_pattern_expectancy	89.0	0.388	probe	AX	s650	False
559.763	0.5	559.762	0.5	AY	n/a	n/a	dot_pattern_expectancy	-1.0	n/a	cue	AY	s650	False
562.268	0.5	562.871	2.316	AY	1.0	71.0	dot_pattern_expectancy	71.0	0.603	probe	AY	s650	False
564.587	0.5	564.586	0.5	AY	n/a	n/a	dot_pattern_expectancy	-1.0	n/a	cue	AY	s650	False
567.092	0.5	568.144	1.636	AY	0.0	71.0	dot_pattern_expectancy	89.0	1.052	probe	AY	s650	False
568.729	0.5	568.728	0.5	BX	n/a	n/a	dot_pattern_expectancy	-1.0	n/a	cue	BX	s650	False
571.234	0.5	571.722	1.908	BX	1.0	71.0	dot_pattern_expectancy	71.0	0.488	probe	BX	s650	False
573.144	0.5	573.143	0.5	AX	n/a	n/a	dot_pattern_expectancy	-1.0	n/a	cue	AX	s650	False
575.648	0.5	576.043	3.54	AX	0.0	89.0	dot_pattern_expectancy	71.0	0.395	probe	AX	s650	False
579.191	0.5	579.19	0.5	BX	n/a	n/a	dot_pattern_expectancy	-1.0	n/a	cue	BX	s650	False
581.696	0.5	582.128	1.636	BX	1.0	71.0	dot_pattern_expectancy	71.0	0.432	probe	BX	s650	False
583.334	0.5	583.333	0.5	BY	n/a	n/a	dot_pattern_expectancy	-1.0	n/a	cue	BY	s650	False
585.837	0.5	585.836	1.5	BY	0.0	71.0	dot_pattern_expectancy	-1.0	n/a	probe	BY	s650	False
587.339	0.5	587.338	0.5	AX	n/a	n/a	dot_pattern_expectancy	-1.0	n/a	cue	AX	s650	False
589.844	0.5	589.843	1.5	AX	0.0	89.0	dot_pattern_expectancy	-1.0	n/a	probe	AX	s650	False
591.347	0.5	591.346	0.5	AX	n/a	n/a	dot_pattern_expectancy	-1.0	n/a	cue	AX	s650	False
593.852	0.5	594.261	1.772	AX	1.0	89.0	dot_pattern_expectancy	89.0	0.409	probe	AX	s650	False
595.626	0.5	595.625	0.5	BY	n/a	n/a	dot_pattern_expectancy	-1.0	n/a	cue	BY	s650	False
598.131	0.5	598.548	2.452	BY	1.0	71.0	dot_pattern_expectancy	71.0	0.417	probe	BY	s650	False
600.585	0.5	600.584	0.5	AX	n/a	n/a	dot_pattern_expectancy	-1.0	n/a	cue	AX	s650	False
603.091	0.5	603.513	1.908	AX	1.0	89.0	dot_pattern_expectancy	89.0	0.422	probe	AX	s650	False
605.002	0.5	605.001	0.5	BX	n/a	n/a	dot_pattern_expectancy	-1.0	n/a	cue	BX	s650	False
607.507	0.5	608.024	1.636	BX	1.0	71.0	dot_pattern_expectancy	71.0	0.517	probe	BX	s650	False
609.144	0.5	609.143	0.5	AX	n/a	n/a	dot_pattern_expectancy	-1.0	n/a	cue	AX	s650	False
611.649	0.5	613.008	1.5	AX	1.0	89.0	dot_pattern_expectancy	89.0	1.359	probe	AX	s650	False
613.151	0.5	613.15	0.5	AX	n/a	n/a	dot_pattern_expectancy	-1.0	n/a	cue	AX	s650	False
615.656	0.5	615.987	1.636	AX	1.0	89.0	dot_pattern_expectancy	89.0	0.331	probe	AX	s650	False
617.296	0.5	617.295	0.5	AX	n/a	n/a	dot_pattern_expectancy	-1.0	n/a	cue	AX	s650	False
619.801	0.5	620.298	1.636	AX	1.0	89.0	dot_pattern_expectancy	89.0	0.497	probe	AX	s650	False
621.439	0.5	621.438	0.5	BY	n/a	n/a	dot_pattern_expectancy	-1.0	n/a	cue	BY	s650	False
623.944	0.5	623.943	2.452	BY	0.0	71.0	dot_pattern_expectancy	-1.0	n/a	probe	BY	s650	False
626.399	0.5	626.398	0.5	AX	n/a	n/a	dot_pattern_expectancy	-1.0	n/a	cue	AX	s650	False
628.904	0.5	630.302	1.5	AX	1.0	89.0	dot_pattern_expectancy	89.0	1.398	probe	AX	s650	False
630.407	0.5	630.406	0.5	BY	n/a	n/a	dot_pattern_expectancy	-1.0	n/a	cue	BY	s650	False
632.911	0.5	634.347	1.5	BY	1.0	71.0	dot_pattern_expectancy	71.0	1.436	probe	BY	s650	False
634.414	0.5	634.413	0.5	AX	n/a	n/a	dot_pattern_expectancy	-1.0	n/a	cue	AX	s650	False
636.919	0.5	637.35	1.636	AX	1.0	89.0	dot_pattern_expectancy	89.0	0.431	probe	AX	s650	False
638.558	0.5	638.557	0.5	AX	n/a	n/a	dot_pattern_expectancy	-1.0	n/a	cue	AX	s650	False
641.061	0.5	641.513	1.636	AX	1.0	89.0	dot_pattern_expectancy	89.0	0.452	probe	AX	s650	False
642.699	0.5	642.698	0.5	AY	n/a	n/a	dot_pattern_expectancy	-1.0	n/a	cue	AY	s650	False
645.203	0.5	645.527	1.636	AY	0.0	71.0	dot_pattern_expectancy	89.0	0.324	probe	AY	s650	False
646.841	0.5	646.84	0.5	AX	n/a	n/a	dot_pattern_expectancy	-1.0	n/a	cue	AX	s650	False
649.346	0.5	649.678	1.5	AX	1.0	89.0	dot_pattern_expectancy	89.0	0.332	probe	AX	s650	False
650.849	0.5	650.848	0.5	AX	n/a	n/a	dot_pattern_expectancy	-1.0	n/a	cue	AX	s650	False
653.353	0.5	653.682	1.5	AX	1.0	89.0	dot_pattern_expectancy	89.0	0.329	probe	AX	s650	False
654.856	0.5	654.855	0.5	AX	n/a	n/a	dot_pattern_expectancy	-1.0	n/a	cue	AX	s650	False
657.36	0.5	657.783	1.772	AX	1.0	89.0	dot_pattern_expectancy	89.0	0.423	probe	AX	s650	False
659.134	0.5	659.133	0.5	AX	n/a	n/a	dot_pattern_expectancy	-1.0	n/a	cue	AX	s650	False
661.638	0.5	661.988	2.18	AX	1.0	89.0	dot_pattern_expectancy	89.0	0.35	probe	AX	s650	False
663.821	0.5	663.82	0.5	BX	n/a	n/a	dot_pattern_expectancy	-1.0	n/a	cue	BX	s650	False
666.325	0.5	666.932	1.772	BX	1.0	71.0	dot_pattern_expectancy	71.0	0.607	probe	BX	s650	False
668.1	0.5	668.099	0.5	BY	n/a	n/a	dot_pattern_expectancy	-1.0	n/a	cue	BY	s650	False
670.605	0.5	671.344	1.5	BY	1.0	71.0	dot_pattern_expectancy	71.0	0.739	probe	BY	s650	False
672.108	0.5	672.107	0.5	AX	n/a	n/a	dot_pattern_expectancy	-1.0	n/a	cue	AX	s650	False
674.611	0.5	674.61	1.5	AX	0.0	89.0	dot_pattern_expectancy	-1.0	n/a	probe	AX	s650	False
676.114	0.5	676.113	0.5	AX	n/a	n/a	dot_pattern_expectancy	-1.0	n/a	cue	AX	s650	False
678.619	0.5	678.618	1.636	AX	0.0	89.0	dot_pattern_expectancy	-1.0	n/a	probe	AX	s650	False
680.258	0.5	680.257	0.5	AY	n/a	n/a	dot_pattern_expectancy	-1.0	n/a	cue	AY	s650	False
682.763	0.5	684.333	2.18	AY	1.0	71.0	dot_pattern_expectancy	71.0	1.57	probe	AY	s650	False
684.946	0.5	684.945	0.5	AY	n/a	n/a	dot_pattern_expectancy	-1.0	n/a	cue	AY	s650	False
687.45	0.5	688.17	2.316	AY	1.0	71.0	dot_pattern_expectancy	71.0	0.72	probe	AY	s650	False
689.768	0.5	689.767	0.5	BX	n/a	n/a	dot_pattern_expectancy	-1.0	n/a	cue	BX	s650	False
692.273	0.5	693.348	1.636	BX	1.0	71.0	dot_pattern_expectancy	71.0	1.075	probe	BX	s650	False
693.913	0.5	693.912	0.5	BX	n/a	n/a	dot_pattern_expectancy	-1.0	n/a	cue	BX	s650	False
696.417	0.5	696.703	2.18	BX	1.0	71.0	dot_pattern_expectancy	71.0	0.286	probe	BX	s650	False
698.599	0.5	698.598	0.5	AY	n/a	n/a	dot_pattern_expectancy	-1.0	n/a	cue	AY	s650	False
701.103	0.5	701.749	2.044	AY	1.0	71.0	dot_pattern_expectancy	71.0	0.646	probe	AY	s650	False
703.149	0.5	703.148	0.5	AX	n/a	n/a	dot_pattern_expectancy	-1.0	n/a	cue	AX	s650	False
705.654	0.5	706.159	1.772	AX	1.0	89.0	dot_pattern_expectancy	89.0	0.505	probe	AX	s650	False
707.429	0.5	707.428	0.5	AX	n/a	n/a	dot_pattern_expectancy	-1.0	n/a	cue	AX	s650	False
709.933	0.5	711.0	1.5	AX	0.0	89.0	dot_pattern_expectancy	71.0	1.067	probe	AX	s650	False
711.436	0.5	711.435	0.5	AX	n/a	n/a	dot_pattern_expectancy	-1.0	n/a	cue	AX	s650	False
713.941	0.5	714.375	2.18	AX	1.0	89.0	dot_pattern_expectancy	89.0	0.434	probe	AX	s650	False
716.123	0.5	716.122	0.5	AY	n/a	n/a	dot_pattern_expectancy	-1.0	n/a	cue	AY	s650	False
718.628	0.5	718.627	2.452	AY	0.0	71.0	dot_pattern_expectancy	-1.0	n/a	probe	AY	s650	False
721.083	0.5	721.082	0.5	AX	n/a	n/a	dot_pattern_expectancy	-1.0	n/a	cue	AX	s650	False
723.588	0.5	724.316	1.636	AX	1.0	89.0	dot_pattern_expectancy	89.0	0.728	probe	AX	s650	False
725.226	0.5	725.225	0.5	AX	n/a	n/a	dot_pattern_expectancy	-1.0	n/a	cue	AX	s650	False
727.729	0.5	728.765	1.908	AX	1.0	89.0	dot_pattern_expectancy	89.0	1.036	probe	AX	s650	False
