duration	onset	block_duration	movement_onset	planning	condition	exp_stage	experiment_exp_id	key_press	problem_id	response_time	trial_id	trial_type	worker_id	junk
13.084	3.009	13.084	16.093	1	UA_with_intermediate	practice	ward_and_allport	71	0.0	13.084	to_hand	poldrack-single-stim	s650	False
0.1	16.094	4.406	20.5	0	UA_with_intermediate	practice	ward_and_allport	71	0.0	4.406	to_board	poldrack-single-stim	s650	False
0.1	20.502	2.856	23.358	0	UA_with_intermediate	practice	ward_and_allport	71	0.0	2.856	to_hand	poldrack-single-stim	s650	False
0.1	23.36	0.569	23.929	0	UA_with_intermediate	practice	ward_and_allport	82	0.0	0.569	to_board	poldrack-single-stim	s650	False
0.1	23.93	1.068	24.998	0	UA_with_intermediate	practice	ward_and_allport	71	0.0	1.068	to_hand	poldrack-single-stim	s650	False
0.1	24.999	0.388	25.387	0	UA_with_intermediate	practice	ward_and_allport	89	0.0	0.388	to_board	poldrack-single-stim	s650	False
0.1	25.391	1.846	27.237	0	UA_with_intermediate	practice	ward_and_allport	82	0.0	1.846	to_hand	poldrack-single-stim	s650	False
0.1	27.239	0.278	27.517	0	UA_with_intermediate	practice	ward_and_allport	89	0.0	0.278	to_board	poldrack-single-stim	s650	False
1.0	27.521	2.5	27.52	0	UA_with_intermediate	practice	ward_and_allport	-1	0.0	n/a	feedback	poldrack-single-stim	s650	False
5.057	30.024	5.057	35.081	1	UA_with_intermediate	practice	ward_and_allport	71	1.0	5.057	to_hand	poldrack-single-stim	s650	False
0.1	35.082	3.346	38.428	0	UA_with_intermediate	practice	ward_and_allport	82	1.0	3.346	to_board	poldrack-single-stim	s650	False
0.1	38.43	1.359	39.789	0	UA_with_intermediate	practice	ward_and_allport	89	1.0	1.359	to_hand	poldrack-single-stim	s650	False
0.1	39.791	0.321	40.112	0	UA_with_intermediate	practice	ward_and_allport	71	1.0	0.321	to_board	poldrack-single-stim	s650	False
0.1	40.113	1.502	41.615	0	UA_with_intermediate	practice	ward_and_allport	82	1.0	1.502	to_hand	poldrack-single-stim	s650	False
0.1	41.617	0.534	42.151	0	UA_with_intermediate	practice	ward_and_allport	89	1.0	0.534	to_board	poldrack-single-stim	s650	False
0.1	42.153	0.638	42.791	0	UA_with_intermediate	practice	ward_and_allport	71	1.0	0.638	to_hand	poldrack-single-stim	s650	False
0.1	42.793	2.401	45.194	0	UA_with_intermediate	practice	ward_and_allport	89	1.0	2.401	to_board	poldrack-single-stim	s650	False
1.0	45.198	2.1	45.197	0	UA_with_intermediate	practice	ward_and_allport	-1	1.0	n/a	feedback	poldrack-single-stim	s650	False
3.395	47.301	3.395	50.696	1	UA_without_intermediate	practice	ward_and_allport	82	2.0	3.395	to_hand	poldrack-single-stim	s650	False
0.1	50.697	0.492	51.189	0	UA_without_intermediate	practice	ward_and_allport	89	2.0	0.492	to_board	poldrack-single-stim	s650	False
0.1	51.191	1.55	52.741	0	UA_without_intermediate	practice	ward_and_allport	71	2.0	1.55	to_hand	poldrack-single-stim	s650	False
0.1	52.742	0.437	53.179	0	UA_without_intermediate	practice	ward_and_allport	89	2.0	0.437	to_board	poldrack-single-stim	s650	False
0.1	53.182	1.622	54.804	0	UA_without_intermediate	practice	ward_and_allport	71	2.0	1.622	to_hand	poldrack-single-stim	s650	False
0.1	54.805	0.314	55.119	0	UA_without_intermediate	practice	ward_and_allport	89	2.0	0.314	to_board	poldrack-single-stim	s650	False
1.0	55.122	2.2	55.121	0	UA_without_intermediate	practice	ward_and_allport	-1	2.0	n/a	feedback	poldrack-single-stim	s650	False
8.016	57.325	8.016	65.341	1	UA_without_intermediate	practice	ward_and_allport	71	3.0	8.016	to_hand	poldrack-single-stim	s650	False
0.1	65.342	0.451	65.793	0	UA_without_intermediate	practice	ward_and_allport	89	3.0	0.451	to_board	poldrack-single-stim	s650	False
0.1	65.796	2.315	68.111	0	UA_without_intermediate	practice	ward_and_allport	71	3.0	2.315	to_hand	poldrack-single-stim	s650	False
0.1	68.112	1.546	69.658	0	UA_without_intermediate	practice	ward_and_allport	82	3.0	1.546	to_board	poldrack-single-stim	s650	False
0.1	69.661	2.181	71.842	0	UA_without_intermediate	practice	ward_and_allport	82	3.0	2.181	to_hand	poldrack-single-stim	s650	False
0.1	71.844	0.452	72.296	0	UA_without_intermediate	practice	ward_and_allport	71	3.0	0.452	to_board	poldrack-single-stim	s650	False
0.1	72.298	1.33	73.628	0	UA_without_intermediate	practice	ward_and_allport	82	3.0	1.33	to_hand	poldrack-single-stim	s650	False
0.1	73.629	0.725	74.354	0	UA_without_intermediate	practice	ward_and_allport	89	3.0	0.725	to_board	poldrack-single-stim	s650	False
0.1	74.356	0.544	74.9	0	UA_without_intermediate	practice	ward_and_allport	71	3.0	0.544	to_hand	poldrack-single-stim	s650	False
0.1	74.901	0.533	75.434	0	UA_without_intermediate	practice	ward_and_allport	89	3.0	0.533	to_board	poldrack-single-stim	s650	False
1.0	75.438	2.0	75.437	0	UA_without_intermediate	practice	ward_and_allport	-1	3.0	n/a	feedback	poldrack-single-stim	s650	False
8.0	79.444	8.0	87.444	1	PA_with_intermediate	test	ward_and_allport	82	0.0	8.0	to_hand	poldrack-single-stim	s650	False
0.1	87.445	0.578	88.023	0	PA_with_intermediate	test	ward_and_allport	71	0.0	0.578	to_board	poldrack-single-stim	s650	False
0.1	88.026	2.986	91.012	0	PA_with_intermediate	test	ward_and_allport	82	0.0	2.986	to_hand	poldrack-single-stim	s650	False
0.1	91.013	0.525	91.538	0	PA_with_intermediate	test	ward_and_allport	89	0.0	0.525	to_board	poldrack-single-stim	s650	False
0.1	91.541	0.244	91.785	0	PA_with_intermediate	test	ward_and_allport	89	0.0	0.244	to_hand	poldrack-single-stim	s650	False
0.1	91.787	0.877	92.664	0	PA_with_intermediate	test	ward_and_allport	89	0.0	0.877	to_board	poldrack-single-stim	s650	False
0.1	92.666	0.548	93.214	0	PA_with_intermediate	test	ward_and_allport	71	0.0	0.548	to_hand	poldrack-single-stim	s650	False
0.1	93.216	0.517	93.733	0	PA_with_intermediate	test	ward_and_allport	82	0.0	0.517	to_board	poldrack-single-stim	s650	False
1.0	93.737	4.176	93.736	0	PA_with_intermediate	test	ward_and_allport	-1	0.0	n/a	feedback	poldrack-single-stim	s650	False
5.733	97.917	5.733	103.65	1	PA_with_intermediate	test	ward_and_allport	89	1.0	5.733	to_hand	poldrack-single-stim	s650	False
0.1	103.651	3.965	107.616	0	PA_with_intermediate	test	ward_and_allport	82	1.0	3.965	to_board	poldrack-single-stim	s650	False
0.1	107.618	2.159	109.777	0	PA_with_intermediate	test	ward_and_allport	89	1.0	2.159	to_hand	poldrack-single-stim	s650	False
0.1	109.779	0.493	110.272	0	PA_with_intermediate	test	ward_and_allport	71	1.0	0.493	to_board	poldrack-single-stim	s650	False
0.1	110.275	1.494	111.769	0	PA_with_intermediate	test	ward_and_allport	82	1.0	1.494	to_hand	poldrack-single-stim	s650	False
0.1	111.771	0.537	112.308	0	PA_with_intermediate	test	ward_and_allport	71	1.0	0.537	to_board	poldrack-single-stim	s650	False
1.0	112.313	3.36	112.312	0	PA_with_intermediate	test	ward_and_allport	-1	1.0	n/a	feedback	poldrack-single-stim	s650	False
5.779	115.675	5.779	121.454	1	PA_with_intermediate	test	ward_and_allport	71	2.0	5.779	to_hand	poldrack-single-stim	s650	False
0.1	121.455	1.181	122.636	0	PA_with_intermediate	test	ward_and_allport	89	2.0	1.181	to_board	poldrack-single-stim	s650	False
0.1	122.639	1.041	123.68	0	PA_with_intermediate	test	ward_and_allport	71	2.0	1.041	to_hand	poldrack-single-stim	s650	False
0.1	123.682	0.466	124.148	0	PA_with_intermediate	test	ward_and_allport	82	2.0	0.466	to_board	poldrack-single-stim	s650	False
0.1	124.15	2.023	126.173	0	PA_with_intermediate	test	ward_and_allport	89	2.0	2.023	to_hand	poldrack-single-stim	s650	False
0.1	126.174	0.405	126.579	0	PA_with_intermediate	test	ward_and_allport	71	2.0	0.405	to_board	poldrack-single-stim	s650	False
1.0	126.583	2.0	126.582	0	PA_with_intermediate	test	ward_and_allport	-1	2.0	n/a	feedback	poldrack-single-stim	s650	False
5.006	128.588	5.006	133.594	1	PA_without_intermediate	test	ward_and_allport	71	3.0	5.006	to_hand	poldrack-single-stim	s650	False
0.1	133.595	3.847	137.442	0	PA_without_intermediate	test	ward_and_allport	89	3.0	3.847	to_board	poldrack-single-stim	s650	False
0.1	137.445	0.979	138.424	0	PA_without_intermediate	test	ward_and_allport	71	3.0	0.979	to_hand	poldrack-single-stim	s650	False
0.1	138.425	0.448	138.873	0	PA_without_intermediate	test	ward_and_allport	82	3.0	0.448	to_board	poldrack-single-stim	s650	False
0.1	138.877	0.412	139.289	0	PA_without_intermediate	test	ward_and_allport	71	3.0	0.412	to_hand	poldrack-single-stim	s650	False
0.1	139.29	0.4	139.69	0	PA_without_intermediate	test	ward_and_allport	89	3.0	0.4	to_board	poldrack-single-stim	s650	False
1.0	139.693	2.408	139.692	0	PA_without_intermediate	test	ward_and_allport	-1	3.0	n/a	feedback	poldrack-single-stim	s650	False
7.748	142.105	7.748	149.853	1	PA_with_intermediate	test	ward_and_allport	82	4.0	7.748	to_hand	poldrack-single-stim	s650	False
0.1	149.855	0.52	150.375	0	PA_with_intermediate	test	ward_and_allport	89	4.0	0.52	to_board	poldrack-single-stim	s650	False
0.1	150.378	1.264	151.642	0	PA_with_intermediate	test	ward_and_allport	82	4.0	1.264	to_hand	poldrack-single-stim	s650	False
0.1	151.643	0.632	152.275	0	PA_with_intermediate	test	ward_and_allport	71	4.0	0.632	to_board	poldrack-single-stim	s650	False
0.1	152.277	1.898	154.175	0	PA_with_intermediate	test	ward_and_allport	89	4.0	1.898	to_hand	poldrack-single-stim	s650	False
0.1	154.177	0.199	154.376	0	PA_with_intermediate	test	ward_and_allport	89	4.0	0.199	to_board	poldrack-single-stim	s650	False
0.1	154.379	0.586	154.965	0	PA_with_intermediate	test	ward_and_allport	89	4.0	0.586	to_hand	poldrack-single-stim	s650	False
0.1	154.966	0.441	155.407	0	PA_with_intermediate	test	ward_and_allport	82	4.0	0.441	to_board	poldrack-single-stim	s650	False
1.0	155.413	2.816	155.412	0	PA_with_intermediate	test	ward_and_allport	-1	4.0	n/a	feedback	poldrack-single-stim	s650	False
3.479	158.233	3.479	161.712	1	PA_without_intermediate	test	ward_and_allport	89	5.0	3.479	to_hand	poldrack-single-stim	s650	False
0.1	161.713	0.37	162.083	0	PA_without_intermediate	test	ward_and_allport	82	5.0	0.37	to_board	poldrack-single-stim	s650	False
0.1	162.086	2.008	164.094	0	PA_without_intermediate	test	ward_and_allport	89	5.0	2.008	to_hand	poldrack-single-stim	s650	False
0.1	164.096	0.27	164.366	0	PA_without_intermediate	test	ward_and_allport	71	5.0	0.27	to_board	poldrack-single-stim	s650	False
0.1	164.37	0.925	165.295	0	PA_without_intermediate	test	ward_and_allport	89	5.0	0.925	to_hand	poldrack-single-stim	s650	False
0.1	165.296	0.27	165.566	0	PA_without_intermediate	test	ward_and_allport	82	5.0	0.27	to_board	poldrack-single-stim	s650	False
1.0	165.57	3.088	165.569	0	PA_without_intermediate	test	ward_and_allport	-1	5.0	n/a	feedback	poldrack-single-stim	s650	False
2.819	168.663	2.819	171.482	1	PA_without_intermediate	test	ward_and_allport	82	6.0	2.819	to_hand	poldrack-single-stim	s650	False
0.1	171.483	0.72	172.203	0	PA_without_intermediate	test	ward_and_allport	71	6.0	0.72	to_board	poldrack-single-stim	s650	False
0.1	172.207	1.308	173.515	0	PA_without_intermediate	test	ward_and_allport	82	6.0	1.308	to_hand	poldrack-single-stim	s650	False
0.1	173.516	0.732	174.248	0	PA_without_intermediate	test	ward_and_allport	71	6.0	0.732	to_board	poldrack-single-stim	s650	False
0.1	174.253	1.065	175.318	0	PA_without_intermediate	test	ward_and_allport	82	6.0	1.065	to_hand	poldrack-single-stim	s650	False
0.1	175.32	0.489	175.809	0	PA_without_intermediate	test	ward_and_allport	89	6.0	0.489	to_board	poldrack-single-stim	s650	False
1.0	175.814	2.136	175.813	0	PA_without_intermediate	test	ward_and_allport	-1	6.0	n/a	feedback	poldrack-single-stim	s650	False
2.635	177.955	2.635	180.59	1	PA_without_intermediate	test	ward_and_allport	82	7.0	2.635	to_hand	poldrack-single-stim	s650	False
0.1	180.592	0.521	181.113	0	PA_without_intermediate	test	ward_and_allport	71	7.0	0.521	to_board	poldrack-single-stim	s650	False
0.1	181.117	1.355	182.472	0	PA_without_intermediate	test	ward_and_allport	82	7.0	1.355	to_hand	poldrack-single-stim	s650	False
0.1	182.474	0.723	183.197	0	PA_without_intermediate	test	ward_and_allport	89	7.0	0.723	to_board	poldrack-single-stim	s650	False
0.1	183.201	0.537	183.738	0	PA_without_intermediate	test	ward_and_allport	82	7.0	0.537	to_hand	poldrack-single-stim	s650	False
0.1	183.74	0.322	184.062	0	PA_without_intermediate	test	ward_and_allport	71	7.0	0.322	to_board	poldrack-single-stim	s650	False
1.0	184.068	7.168	184.067	0	PA_without_intermediate	test	ward_and_allport	-1	7.0	n/a	feedback	poldrack-single-stim	s650	False
4.298	191.241	4.298	195.539	1	PA_without_intermediate	test	ward_and_allport	71	8.0	4.298	to_hand	poldrack-single-stim	s650	False
0.1	195.54	0.429	195.969	0	PA_without_intermediate	test	ward_and_allport	82	8.0	0.429	to_board	poldrack-single-stim	s650	False
0.1	195.973	1.236	197.209	0	PA_without_intermediate	test	ward_and_allport	71	8.0	1.236	to_hand	poldrack-single-stim	s650	False
0.1	197.209	0.357	197.566	0	PA_without_intermediate	test	ward_and_allport	89	8.0	0.357	to_board	poldrack-single-stim	s650	False
0.1	197.57	0.395	197.965	0	PA_without_intermediate	test	ward_and_allport	71	8.0	0.395	to_hand	poldrack-single-stim	s650	False
0.1	197.966	0.316	198.282	0	PA_without_intermediate	test	ward_and_allport	82	8.0	0.316	to_board	poldrack-single-stim	s650	False
1.0	198.287	2.816	198.286	0	PA_without_intermediate	test	ward_and_allport	-1	8.0	n/a	feedback	poldrack-single-stim	s650	False
4.165	201.108	4.165	205.273	1	PA_with_intermediate	test	ward_and_allport	89	9.0	4.165	to_hand	poldrack-single-stim	s650	False
0.1	205.274	0.488	205.762	0	PA_with_intermediate	test	ward_and_allport	82	9.0	0.488	to_board	poldrack-single-stim	s650	False
0.1	205.766	1.097	206.863	0	PA_with_intermediate	test	ward_and_allport	89	9.0	1.097	to_hand	poldrack-single-stim	s650	False
0.1	206.864	0.217	207.081	0	PA_with_intermediate	test	ward_and_allport	89	9.0	0.217	to_board	poldrack-single-stim	s650	False
0.1	207.085	0.972	208.057	0	PA_with_intermediate	test	ward_and_allport	89	9.0	0.972	to_hand	poldrack-single-stim	s650	False
0.1	208.058	0.352	208.41	0	PA_with_intermediate	test	ward_and_allport	71	9.0	0.352	to_board	poldrack-single-stim	s650	False
0.1	208.415	1.723	210.138	0	PA_with_intermediate	test	ward_and_allport	82	9.0	1.723	to_hand	poldrack-single-stim	s650	False
0.1	210.14	0.418	210.558	0	PA_with_intermediate	test	ward_and_allport	89	9.0	0.418	to_board	poldrack-single-stim	s650	False
1.0	210.564	2.952	210.563	0	PA_with_intermediate	test	ward_and_allport	-1	9.0	n/a	feedback	poldrack-single-stim	s650	False
4.659	213.522	4.659	218.181	1	PA_with_intermediate	test	ward_and_allport	82	10.0	4.659	to_hand	poldrack-single-stim	s650	False
0.1	218.183	2.835	221.018	0	PA_with_intermediate	test	ward_and_allport	89	10.0	2.835	to_board	poldrack-single-stim	s650	False
0.1	221.021	1.078	222.099	0	PA_with_intermediate	test	ward_and_allport	82	10.0	1.078	to_hand	poldrack-single-stim	s650	False
0.1	222.101	0.371	222.472	0	PA_with_intermediate	test	ward_and_allport	71	10.0	0.371	to_board	poldrack-single-stim	s650	False
0.1	222.476	0.876	223.352	0	PA_with_intermediate	test	ward_and_allport	89	10.0	0.876	to_hand	poldrack-single-stim	s650	False
0.1	223.353	0.406	223.759	0	PA_with_intermediate	test	ward_and_allport	82	10.0	0.406	to_board	poldrack-single-stim	s650	False
0.1	223.762	3.741	227.503	0	PA_with_intermediate	test	ward_and_allport	82	10.0	3.741	to_hand	poldrack-single-stim	s650	False
0.1	227.505	0.994	228.499	0	PA_with_intermediate	test	ward_and_allport	71	10.0	0.994	to_board	poldrack-single-stim	s650	False
1.0	228.506	2.136	228.505	0	PA_with_intermediate	test	ward_and_allport	-1	10.0	n/a	feedback	poldrack-single-stim	s650	False
3.756	230.648	3.756	234.404	1	PA_without_intermediate	test	ward_and_allport	89	11.0	3.756	to_hand	poldrack-single-stim	s650	False
0.1	234.405	0.525	234.93	0	PA_without_intermediate	test	ward_and_allport	82	11.0	0.525	to_board	poldrack-single-stim	s650	False
0.1	234.935	3.764	238.699	0	PA_without_intermediate	test	ward_and_allport	89	11.0	3.764	to_hand	poldrack-single-stim	s650	False
0.1	238.701	0.734	239.435	0	PA_without_intermediate	test	ward_and_allport	71	11.0	0.734	to_board	poldrack-single-stim	s650	False
0.1	239.441	2.151	241.592	0	PA_without_intermediate	test	ward_and_allport	89	11.0	2.151	to_hand	poldrack-single-stim	s650	False
0.1	241.594	1.438	243.032	0	PA_without_intermediate	test	ward_and_allport	82	11.0	1.438	to_board	poldrack-single-stim	s650	False
1.0	243.037	2.68	243.036	0	PA_without_intermediate	test	ward_and_allport	-1	11.0	n/a	feedback	poldrack-single-stim	s650	False
3.45	245.723	3.45	249.173	1	PA_without_intermediate	test	ward_and_allport	89	12.0	3.45	to_hand	poldrack-single-stim	s650	False
0.1	249.175	0.398	249.573	0	PA_without_intermediate	test	ward_and_allport	71	12.0	0.398	to_board	poldrack-single-stim	s650	False
0.1	249.578	1.252	250.83	0	PA_without_intermediate	test	ward_and_allport	89	12.0	1.252	to_hand	poldrack-single-stim	s650	False
0.1	250.832	0.797	251.629	0	PA_without_intermediate	test	ward_and_allport	71	12.0	0.797	to_board	poldrack-single-stim	s650	False
0.1	251.634	1.699	253.333	0	PA_without_intermediate	test	ward_and_allport	89	12.0	1.699	to_hand	poldrack-single-stim	s650	False
0.1	253.335	0.751	254.086	0	PA_without_intermediate	test	ward_and_allport	82	12.0	0.751	to_board	poldrack-single-stim	s650	False
1.0	254.092	3.088	254.091	0	PA_without_intermediate	test	ward_and_allport	-1	12.0	n/a	feedback	poldrack-single-stim	s650	False
6.002	257.185	6.002	263.187	1	PA_with_intermediate	test	ward_and_allport	82	13.0	6.002	to_hand	poldrack-single-stim	s650	False
0.1	263.188	1.346	264.534	0	PA_with_intermediate	test	ward_and_allport	89	13.0	1.346	to_board	poldrack-single-stim	s650	False
0.1	264.54	2.161	266.701	0	PA_with_intermediate	test	ward_and_allport	82	13.0	2.161	to_hand	poldrack-single-stim	s650	False
0.1	266.702	0.436	267.138	0	PA_with_intermediate	test	ward_and_allport	71	13.0	0.436	to_board	poldrack-single-stim	s650	False
0.1	267.142	1.096	268.238	0	PA_with_intermediate	test	ward_and_allport	89	13.0	1.096	to_hand	poldrack-single-stim	s650	False
0.1	268.24	1.539	269.779	0	PA_with_intermediate	test	ward_and_allport	71	13.0	1.539	to_board	poldrack-single-stim	s650	False
1.0	269.785	2.0	269.784	0	PA_with_intermediate	test	ward_and_allport	-1	13.0	n/a	feedback	poldrack-single-stim	s650	False
3.143	271.79	3.143	274.933	1	PA_without_intermediate	test	ward_and_allport	82	14.0	3.143	to_hand	poldrack-single-stim	s650	False
0.1	274.934	0.428	275.362	0	PA_without_intermediate	test	ward_and_allport	71	14.0	0.428	to_board	poldrack-single-stim	s650	False
0.1	275.367	2.386	277.753	0	PA_without_intermediate	test	ward_and_allport	82	14.0	2.386	to_hand	poldrack-single-stim	s650	False
0.1	277.754	0.821	278.575	0	PA_without_intermediate	test	ward_and_allport	89	14.0	0.821	to_board	poldrack-single-stim	s650	False
0.1	278.58	1.887	280.467	0	PA_without_intermediate	test	ward_and_allport	82	14.0	1.887	to_hand	poldrack-single-stim	s650	False
0.1	280.469	0.465	280.934	0	PA_without_intermediate	test	ward_and_allport	71	14.0	0.465	to_board	poldrack-single-stim	s650	False
1.0	280.939	2.0	280.938	0	PA_without_intermediate	test	ward_and_allport	-1	14.0	n/a	feedback	poldrack-single-stim	s650	False
3.951	287.947	3.951	291.898	1	PA_without_intermediate	test	ward_and_allport	89	15.0	3.951	to_hand	poldrack-single-stim	s650	False
0.1	291.899	0.65	292.549	0	PA_without_intermediate	test	ward_and_allport	71	15.0	0.65	to_board	poldrack-single-stim	s650	False
0.1	292.553	1.491	294.044	0	PA_without_intermediate	test	ward_and_allport	89	15.0	1.491	to_hand	poldrack-single-stim	s650	False
0.1	294.045	0.362	294.407	0	PA_without_intermediate	test	ward_and_allport	71	15.0	0.362	to_board	poldrack-single-stim	s650	False
0.1	294.413	0.64	295.053	0	PA_without_intermediate	test	ward_and_allport	89	15.0	0.64	to_hand	poldrack-single-stim	s650	False
0.1	295.054	0.584	295.638	0	PA_without_intermediate	test	ward_and_allport	82	15.0	0.584	to_board	poldrack-single-stim	s650	False
1.0	295.644	2.0	295.643	0	PA_without_intermediate	test	ward_and_allport	-1	15.0	n/a	feedback	poldrack-single-stim	s650	False
5.023	297.649	5.023	302.672	1	PA_with_intermediate	test	ward_and_allport	89	16.0	5.023	to_hand	poldrack-single-stim	s650	False
0.1	302.674	0.49	303.164	0	PA_with_intermediate	test	ward_and_allport	71	16.0	0.49	to_board	poldrack-single-stim	s650	False
0.1	303.169	0.959	304.128	0	PA_with_intermediate	test	ward_and_allport	89	16.0	0.959	to_hand	poldrack-single-stim	s650	False
0.1	304.129	0.72	304.849	0	PA_with_intermediate	test	ward_and_allport	82	16.0	0.72	to_board	poldrack-single-stim	s650	False
0.1	304.855	1.804	306.659	0	PA_with_intermediate	test	ward_and_allport	71	16.0	1.804	to_hand	poldrack-single-stim	s650	False
0.1	306.66	0.443	307.103	0	PA_with_intermediate	test	ward_and_allport	82	16.0	0.443	to_board	poldrack-single-stim	s650	False
1.0	307.109	2.544	307.108	0	PA_with_intermediate	test	ward_and_allport	-1	16.0	n/a	feedback	poldrack-single-stim	s650	False
3.485	309.659	3.485	313.144	1	PA_without_intermediate	test	ward_and_allport	82	17.0	3.485	to_hand	poldrack-single-stim	s650	False
0.1	313.145	1.292	314.437	0	PA_without_intermediate	test	ward_and_allport	89	17.0	1.292	to_board	poldrack-single-stim	s650	False
0.1	314.443	1.766	316.209	0	PA_without_intermediate	test	ward_and_allport	82	17.0	1.766	to_hand	poldrack-single-stim	s650	False
0.1	316.21	0.459	316.669	0	PA_without_intermediate	test	ward_and_allport	71	17.0	0.459	to_board	poldrack-single-stim	s650	False
0.1	316.675	1.765	318.44	0	PA_without_intermediate	test	ward_and_allport	82	17.0	1.765	to_hand	poldrack-single-stim	s650	False
0.1	318.441	1.578	320.019	0	PA_without_intermediate	test	ward_and_allport	89	17.0	1.578	to_board	poldrack-single-stim	s650	False
1.0	320.025	2.272	320.024	0	PA_without_intermediate	test	ward_and_allport	-1	17.0	n/a	feedback	poldrack-single-stim	s650	False
10.172	322.304	10.172	332.476	1	PA_with_intermediate	test	ward_and_allport	71	18.0	10.172	to_hand	poldrack-single-stim	s650	False
0.1	332.477	1.693	334.17	0	PA_with_intermediate	test	ward_and_allport	89	18.0	1.693	to_board	poldrack-single-stim	s650	False
0.1	334.176	0.923	335.099	0	PA_with_intermediate	test	ward_and_allport	71	18.0	0.923	to_hand	poldrack-single-stim	s650	False
0.1	335.1	0.426	335.526	0	PA_with_intermediate	test	ward_and_allport	82	18.0	0.426	to_board	poldrack-single-stim	s650	False
0.1	335.532	1.206	336.738	0	PA_with_intermediate	test	ward_and_allport	89	18.0	1.206	to_hand	poldrack-single-stim	s650	False
0.1	336.739	1.108	337.847	0	PA_with_intermediate	test	ward_and_allport	82	18.0	1.108	to_board	poldrack-single-stim	s650	False
1.0	337.855	4.04	337.854	0	PA_with_intermediate	test	ward_and_allport	-1	18.0	n/a	feedback	poldrack-single-stim	s650	False
3.733	341.901	3.733	345.634	1	PA_with_intermediate	test	ward_and_allport	82	19.0	3.733	to_hand	poldrack-single-stim	s650	False
0.1	345.634	3.213	348.847	0	PA_with_intermediate	test	ward_and_allport	71	19.0	3.213	to_board	poldrack-single-stim	s650	False
0.1	348.854	0.578	349.432	0	PA_with_intermediate	test	ward_and_allport	82	19.0	0.578	to_hand	poldrack-single-stim	s650	False
0.1	349.434	0.504	349.938	0	PA_with_intermediate	test	ward_and_allport	89	19.0	0.504	to_board	poldrack-single-stim	s650	False
0.1	349.945	2.926	352.871	0	PA_with_intermediate	test	ward_and_allport	71	19.0	2.926	to_hand	poldrack-single-stim	s650	False
0.1	352.873	0.452	353.325	0	PA_with_intermediate	test	ward_and_allport	82	19.0	0.452	to_board	poldrack-single-stim	s650	False
1.0	353.333	2.272	353.332	0	PA_with_intermediate	test	ward_and_allport	-1	19.0	n/a	feedback	poldrack-single-stim	s650	False
6.292	355.611	6.292	361.903	1	PA_with_intermediate	test	ward_and_allport	82	20.0	6.292	to_hand	poldrack-single-stim	s650	False
0.1	361.905	1.123	363.028	0	PA_with_intermediate	test	ward_and_allport	89	20.0	1.123	to_board	poldrack-single-stim	s650	False
0.1	363.033	0.885	363.918	0	PA_with_intermediate	test	ward_and_allport	82	20.0	0.885	to_hand	poldrack-single-stim	s650	False
0.1	363.919	0.473	364.392	0	PA_with_intermediate	test	ward_and_allport	71	20.0	0.473	to_board	poldrack-single-stim	s650	False
0.1	364.399	1.009	365.408	0	PA_with_intermediate	test	ward_and_allport	89	20.0	1.009	to_hand	poldrack-single-stim	s650	False
0.1	365.408	0.506	365.914	0	PA_with_intermediate	test	ward_and_allport	82	20.0	0.506	to_board	poldrack-single-stim	s650	False
1.0	365.922	2.136	365.921	0	PA_with_intermediate	test	ward_and_allport	-1	20.0	n/a	feedback	poldrack-single-stim	s650	False
5.284	368.065	5.284	373.349	1	PA_with_intermediate	test	ward_and_allport	71	21.0	5.284	to_hand	poldrack-single-stim	s650	False
0.1	373.35	0.453	373.803	0	PA_with_intermediate	test	ward_and_allport	82	21.0	0.453	to_board	poldrack-single-stim	s650	False
0.1	373.81	1.203	375.013	0	PA_with_intermediate	test	ward_and_allport	71	21.0	1.203	to_hand	poldrack-single-stim	s650	False
0.1	375.014	1.683	376.697	0	PA_with_intermediate	test	ward_and_allport	89	21.0	1.683	to_board	poldrack-single-stim	s650	False
0.1	376.703	1.103	377.806	0	PA_with_intermediate	test	ward_and_allport	82	21.0	1.103	to_hand	poldrack-single-stim	s650	False
0.1	377.807	0.961	378.768	0	PA_with_intermediate	test	ward_and_allport	89	21.0	0.961	to_board	poldrack-single-stim	s650	False
1.0	378.776	2.0	378.775	0	PA_with_intermediate	test	ward_and_allport	-1	21.0	n/a	feedback	poldrack-single-stim	s650	False
3.459	380.783	3.459	384.242	1	PA_with_intermediate	test	ward_and_allport	89	22.0	3.459	to_hand	poldrack-single-stim	s650	False
0.1	384.242	4.023	388.265	0	PA_with_intermediate	test	ward_and_allport	71	22.0	4.023	to_board	poldrack-single-stim	s650	False
0.1	388.271	0.85	389.121	0	PA_with_intermediate	test	ward_and_allport	89	22.0	0.85	to_hand	poldrack-single-stim	s650	False
0.1	389.123	0.471	389.594	0	PA_with_intermediate	test	ward_and_allport	82	22.0	0.471	to_board	poldrack-single-stim	s650	False
0.1	389.601	0.817	390.418	0	PA_with_intermediate	test	ward_and_allport	71	22.0	0.817	to_hand	poldrack-single-stim	s650	False
0.1	390.419	0.929	391.348	0	PA_with_intermediate	test	ward_and_allport	89	22.0	0.929	to_board	poldrack-single-stim	s650	False
1.0	391.357	2.0	391.356	0	PA_with_intermediate	test	ward_and_allport	-1	22.0	n/a	feedback	poldrack-single-stim	s650	False
3.156	393.364	3.156	396.52	1	PA_without_intermediate	test	ward_and_allport	71	23.0	3.156	to_hand	poldrack-single-stim	s650	False
0.1	396.521	0.377	396.898	0	PA_without_intermediate	test	ward_and_allport	89	23.0	0.377	to_board	poldrack-single-stim	s650	False
0.1	396.905	2.18	399.085	0	PA_without_intermediate	test	ward_and_allport	71	23.0	2.18	to_hand	poldrack-single-stim	s650	False
0.1	399.086	0.351	399.437	0	PA_without_intermediate	test	ward_and_allport	89	23.0	0.351	to_board	poldrack-single-stim	s650	False
0.1	399.444	1.309	400.753	0	PA_without_intermediate	test	ward_and_allport	71	23.0	1.309	to_hand	poldrack-single-stim	s650	False
0.1	400.754	0.612	401.366	0	PA_without_intermediate	test	ward_and_allport	82	23.0	0.612	to_board	poldrack-single-stim	s650	False
1.0	401.374	2.408	401.373	0	PA_without_intermediate	test	ward_and_allport	-1	23.0	n/a	feedback	poldrack-single-stim	s650	False
5.341	403.79	5.341	409.131	1	PA_with_intermediate	test	ward_and_allport	71	24.0	5.341	to_hand	poldrack-single-stim	s650	False
0.1	409.132	0.624	409.756	0	PA_with_intermediate	test	ward_and_allport	82	24.0	0.624	to_board	poldrack-single-stim	s650	False
0.1	409.763	0.926	410.689	0	PA_with_intermediate	test	ward_and_allport	71	24.0	0.926	to_hand	poldrack-single-stim	s650	False
0.1	410.691	0.695	411.386	0	PA_with_intermediate	test	ward_and_allport	89	24.0	0.695	to_board	poldrack-single-stim	s650	False
0.1	411.393	1.026	412.419	0	PA_with_intermediate	test	ward_and_allport	71	24.0	1.026	to_hand	poldrack-single-stim	s650	False
0.1	412.42	2.241	414.661	0	PA_with_intermediate	test	ward_and_allport	71	24.0	2.241	to_board	poldrack-single-stim	s650	False
0.1	414.668	0.782	415.45	0	PA_with_intermediate	test	ward_and_allport	82	24.0	0.782	to_hand	poldrack-single-stim	s650	False
0.1	415.452	0.433	415.885	0	PA_with_intermediate	test	ward_and_allport	71	24.0	0.433	to_board	poldrack-single-stim	s650	False
1.0	415.894	3.768	415.893	0	PA_with_intermediate	test	ward_and_allport	-1	24.0	n/a	feedback	poldrack-single-stim	s650	False
3.72	419.67	3.72	423.39	1	PA_with_intermediate	test	ward_and_allport	71	25.0	3.72	to_hand	poldrack-single-stim	s650	False
0.1	423.391	2.991	426.382	0	PA_with_intermediate	test	ward_and_allport	89	25.0	2.991	to_board	poldrack-single-stim	s650	False
0.1	426.39	0.978	427.368	0	PA_with_intermediate	test	ward_and_allport	71	25.0	0.978	to_hand	poldrack-single-stim	s650	False
0.1	427.369	0.462	427.831	0	PA_with_intermediate	test	ward_and_allport	82	25.0	0.462	to_board	poldrack-single-stim	s650	False
0.1	427.838	1.284	429.122	0	PA_with_intermediate	test	ward_and_allport	89	25.0	1.284	to_hand	poldrack-single-stim	s650	False
0.1	429.123	0.508	429.631	0	PA_with_intermediate	test	ward_and_allport	71	25.0	0.508	to_board	poldrack-single-stim	s650	False
1.0	429.64	2.68	429.639	0	PA_with_intermediate	test	ward_and_allport	-1	25.0	n/a	feedback	poldrack-single-stim	s650	False
12.187	432.328	12.187	444.515	1	PA_without_intermediate	test	ward_and_allport	82	26.0	12.187	to_hand	poldrack-single-stim	s650	False
0.1	444.516	0.58	445.096	0	PA_without_intermediate	test	ward_and_allport	89	26.0	0.58	to_board	poldrack-single-stim	s650	False
0.1	445.104	1.101	446.205	0	PA_without_intermediate	test	ward_and_allport	82	26.0	1.101	to_hand	poldrack-single-stim	s650	False
0.1	446.207	1.975	448.182	0	PA_without_intermediate	test	ward_and_allport	89	26.0	1.975	to_board	poldrack-single-stim	s650	False
0.1	448.19	0.438	448.628	0	PA_without_intermediate	test	ward_and_allport	82	26.0	0.438	to_hand	poldrack-single-stim	s650	False
0.1	448.63	0.351	448.981	0	PA_without_intermediate	test	ward_and_allport	71	26.0	0.351	to_board	poldrack-single-stim	s650	False
1.0	448.99	3.224	448.989	0	PA_without_intermediate	test	ward_and_allport	-1	26.0	n/a	feedback	poldrack-single-stim	s650	False
3.759	452.222	3.759	455.981	1	PA_without_intermediate	test	ward_and_allport	71	27.0	3.759	to_hand	poldrack-single-stim	s650	False
0.1	455.983	0.957	456.94	0	PA_without_intermediate	test	ward_and_allport	82	27.0	0.957	to_board	poldrack-single-stim	s650	False
0.1	456.947	0.431	457.378	0	PA_without_intermediate	test	ward_and_allport	71	27.0	0.431	to_hand	poldrack-single-stim	s650	False
0.1	457.38	0.411	457.791	0	PA_without_intermediate	test	ward_and_allport	82	27.0	0.411	to_board	poldrack-single-stim	s650	False
0.1	457.798	1.261	459.059	0	PA_without_intermediate	test	ward_and_allport	71	27.0	1.261	to_hand	poldrack-single-stim	s650	False
0.1	459.06	0.467	459.527	0	PA_without_intermediate	test	ward_and_allport	89	27.0	0.467	to_board	poldrack-single-stim	s650	False
1.0	459.536	3.36	459.535	0	PA_without_intermediate	test	ward_and_allport	-1	27.0	n/a	feedback	poldrack-single-stim	s650	False
4.454	462.904	4.454	467.358	1	PA_without_intermediate	test	ward_and_allport	89	28.0	4.454	to_hand	poldrack-single-stim	s650	False
0.1	467.36	0.46	467.82	0	PA_without_intermediate	test	ward_and_allport	71	28.0	0.46	to_board	poldrack-single-stim	s650	False
0.1	467.827	1.804	469.631	0	PA_without_intermediate	test	ward_and_allport	71	28.0	1.804	to_hand	poldrack-single-stim	s650	False
0.1	469.632	1.937	471.569	0	PA_without_intermediate	test	ward_and_allport	71	28.0	1.937	to_board	poldrack-single-stim	s650	False
0.1	471.577	2.133	473.71	0	PA_without_intermediate	test	ward_and_allport	89	28.0	2.133	to_hand	poldrack-single-stim	s650	False
0.1	473.711	0.985	474.696	0	PA_without_intermediate	test	ward_and_allport	82	28.0	0.985	to_board	poldrack-single-stim	s650	False
0.1	474.704	0.948	475.652	0	PA_without_intermediate	test	ward_and_allport	89	28.0	0.948	to_hand	poldrack-single-stim	s650	False
0.1	475.654	0.565	476.219	0	PA_without_intermediate	test	ward_and_allport	71	28.0	0.565	to_board	poldrack-single-stim	s650	False
1.0	476.228	2.0	476.227	0	PA_without_intermediate	test	ward_and_allport	-1	28.0	n/a	feedback	poldrack-single-stim	s650	False
4.113	478.237	4.113	482.35	1	PA_without_intermediate	test	ward_and_allport	82	29.0	4.113	to_hand	poldrack-single-stim	s650	False
0.1	482.351	1.223	483.574	0	PA_without_intermediate	test	ward_and_allport	89	29.0	1.223	to_board	poldrack-single-stim	s650	False
0.1	483.582	0.995	484.577	0	PA_without_intermediate	test	ward_and_allport	82	29.0	0.995	to_hand	poldrack-single-stim	s650	False
0.1	484.579	0.898	485.477	0	PA_without_intermediate	test	ward_and_allport	89	29.0	0.898	to_board	poldrack-single-stim	s650	False
0.1	485.485	0.91	486.395	0	PA_without_intermediate	test	ward_and_allport	82	29.0	0.91	to_hand	poldrack-single-stim	s650	False
0.1	486.396	1.011	487.407	0	PA_without_intermediate	test	ward_and_allport	71	29.0	1.011	to_board	poldrack-single-stim	s650	False
1.0	487.417	2.408	487.416	0	PA_without_intermediate	test	ward_and_allport	-1	29.0	n/a	feedback	poldrack-single-stim	s650	False
3.564	494.835	3.564	498.399	1	PA_with_intermediate	test	ward_and_allport	71	30.0	3.564	to_hand	poldrack-single-stim	s650	False
0.1	498.4	0.398	498.798	0	PA_with_intermediate	test	ward_and_allport	82	30.0	0.398	to_board	poldrack-single-stim	s650	False
0.1	498.806	0.82	499.626	0	PA_with_intermediate	test	ward_and_allport	71	30.0	0.82	to_hand	poldrack-single-stim	s650	False
0.1	499.627	0.628	500.255	0	PA_with_intermediate	test	ward_and_allport	89	30.0	0.628	to_board	poldrack-single-stim	s650	False
0.1	500.263	2.698	502.961	0	PA_with_intermediate	test	ward_and_allport	82	30.0	2.698	to_hand	poldrack-single-stim	s650	False
0.1	502.963	0.365	503.328	0	PA_with_intermediate	test	ward_and_allport	89	30.0	0.365	to_board	poldrack-single-stim	s650	False
1.0	503.339	2.136	503.338	0	PA_with_intermediate	test	ward_and_allport	-1	30.0	n/a	feedback	poldrack-single-stim	s650	False
3.54	505.485	3.54	509.025	1	PA_without_intermediate	test	ward_and_allport	82	31.0	3.54	to_hand	poldrack-single-stim	s650	False
0.1	509.026	0.554	509.58	0	PA_without_intermediate	test	ward_and_allport	71	31.0	0.554	to_board	poldrack-single-stim	s650	False
0.1	509.589	2.121	511.71	0	PA_without_intermediate	test	ward_and_allport	82	31.0	2.121	to_hand	poldrack-single-stim	s650	False
0.1	511.712	0.69	512.402	0	PA_without_intermediate	test	ward_and_allport	71	31.0	0.69	to_board	poldrack-single-stim	s650	False
0.1	512.411	0.778	513.189	0	PA_without_intermediate	test	ward_and_allport	82	31.0	0.778	to_hand	poldrack-single-stim	s650	False
0.1	513.191	0.61	513.801	0	PA_without_intermediate	test	ward_and_allport	89	31.0	0.61	to_board	poldrack-single-stim	s650	False
1.0	513.811	5.128	513.81	0	PA_without_intermediate	test	ward_and_allport	-1	31.0	n/a	feedback	poldrack-single-stim	s650	False
3.194	518.95	3.194	522.144	1	PA_without_intermediate	test	ward_and_allport	71	32.0	3.194	to_hand	poldrack-single-stim	s650	False
0.1	522.146	0.337	522.483	0	PA_without_intermediate	test	ward_and_allport	82	32.0	0.337	to_board	poldrack-single-stim	s650	False
0.1	522.492	0.453	522.945	0	PA_without_intermediate	test	ward_and_allport	71	32.0	0.453	to_hand	poldrack-single-stim	s650	False
0.1	522.945	0.504	523.449	0	PA_without_intermediate	test	ward_and_allport	82	32.0	0.504	to_board	poldrack-single-stim	s650	False
0.1	523.457	1.742	525.199	0	PA_without_intermediate	test	ward_and_allport	71	32.0	1.742	to_hand	poldrack-single-stim	s650	False
0.1	525.201	0.315	525.516	0	PA_without_intermediate	test	ward_and_allport	89	32.0	0.315	to_board	poldrack-single-stim	s650	False
1.0	525.527	2.136	525.526	0	PA_without_intermediate	test	ward_and_allport	-1	32.0	n/a	feedback	poldrack-single-stim	s650	False
3.603	527.672	3.603	531.275	1	PA_without_intermediate	test	ward_and_allport	89	33.0	3.603	to_hand	poldrack-single-stim	s650	False
0.1	531.276	0.478	531.754	0	PA_without_intermediate	test	ward_and_allport	71	33.0	0.478	to_board	poldrack-single-stim	s650	False
0.1	531.761	3.567	535.328	0	PA_without_intermediate	test	ward_and_allport	89	33.0	3.567	to_hand	poldrack-single-stim	s650	False
0.1	535.329	0.323	535.652	0	PA_without_intermediate	test	ward_and_allport	82	33.0	0.323	to_board	poldrack-single-stim	s650	False
0.1	535.661	0.331	535.992	0	PA_without_intermediate	test	ward_and_allport	71	33.0	0.331	to_hand	poldrack-single-stim	s650	False
0.1	535.993	1.317	537.31	0	PA_without_intermediate	test	ward_and_allport	71	33.0	1.317	to_board	poldrack-single-stim	s650	False
0.1	537.32	0.696	538.016	0	PA_without_intermediate	test	ward_and_allport	89	33.0	0.696	to_hand	poldrack-single-stim	s650	False
0.1	538.016	0.315	538.331	0	PA_without_intermediate	test	ward_and_allport	71	33.0	0.315	to_board	poldrack-single-stim	s650	False
1.0	538.343	5.264	538.342	0	PA_without_intermediate	test	ward_and_allport	-1	33.0	n/a	feedback	poldrack-single-stim	s650	False
3.58	543.617	3.58	547.197	1	PA_with_intermediate	test	ward_and_allport	71	34.0	3.58	to_hand	poldrack-single-stim	s650	False
0.1	547.199	0.356	547.555	0	PA_with_intermediate	test	ward_and_allport	89	34.0	0.356	to_board	poldrack-single-stim	s650	False
0.1	547.565	0.588	548.153	0	PA_with_intermediate	test	ward_and_allport	71	34.0	0.588	to_hand	poldrack-single-stim	s650	False
0.1	548.154	0.484	548.638	0	PA_with_intermediate	test	ward_and_allport	82	34.0	0.484	to_board	poldrack-single-stim	s650	False
0.1	548.648	1.703	550.351	0	PA_with_intermediate	test	ward_and_allport	89	34.0	1.703	to_hand	poldrack-single-stim	s650	False
0.1	550.353	0.399	550.752	0	PA_with_intermediate	test	ward_and_allport	82	34.0	0.399	to_board	poldrack-single-stim	s650	False
1.0	550.761	4.04	550.76	0	PA_with_intermediate	test	ward_and_allport	-1	34.0	n/a	feedback	poldrack-single-stim	s650	False
5.564	554.808	5.564	560.372	1	PA_with_intermediate	test	ward_and_allport	89	35.0	5.564	to_hand	poldrack-single-stim	s650	False
0.1	560.373	1.497	561.87	0	PA_with_intermediate	test	ward_and_allport	82	35.0	1.497	to_board	poldrack-single-stim	s650	False
0.1	561.879	1.253	563.132	0	PA_with_intermediate	test	ward_and_allport	89	35.0	1.253	to_hand	poldrack-single-stim	s650	False
0.1	563.133	0.561	563.694	0	PA_with_intermediate	test	ward_and_allport	71	35.0	0.561	to_board	poldrack-single-stim	s650	False
0.1	563.705	4.299	568.004	0	PA_with_intermediate	test	ward_and_allport	82	35.0	4.299	to_hand	poldrack-single-stim	s650	False
0.1	568.004	0.382	568.386	0	PA_with_intermediate	test	ward_and_allport	89	35.0	0.382	to_board	poldrack-single-stim	s650	False
1.0	568.397	2.136	568.396	0	PA_with_intermediate	test	ward_and_allport	-1	35.0	n/a	feedback	poldrack-single-stim	s650	False
