onset	duration	movement_onset	CTI	block_duration	correct	correct_response	cue	cue_switch	experiment_exp_id	key_press	response_time	stim_color	stim_number	switch_type	task	task_switch	trial_id	trial_type	worker_id	first_trial_of_block	junk
4.413	1.0	5.951	0.9	2.272	True	89.0	Orange-Blue	stay	twobytwo	89.0	0.638	orange	7.0	cue_stay	color	stay	stim	poldrack-single-stim	s650	1	False
6.791	1.0	8.197	0.1	2.136	True	71.0	High-Low	n/a	twobytwo	71.0	1.306	orange	2.0	task_switch	magnitude	switch	stim	poldrack-single-stim	s650	0	False
9.832	1.0	11.442	0.9	2.0	False	89.0	Magnitude	switch	twobytwo	71.0	0.71	orange	9.0	cue_switch	magnitude	stay	stim	poldrack-single-stim	s650	0	False
11.936	1.0	12.938	0.1	2.0	True	71.0	Orange-Blue	n/a	twobytwo	71.0	0.902	blue	1.0	task_switch	color	switch	stim	poldrack-single-stim	s650	0	False
14.041	1.0	15.217	0.1	2.136	True	71.0	High-Low	n/a	twobytwo	71.0	1.076	blue	1.0	task_switch	magnitude	switch	stim	poldrack-single-stim	s650	0	False
17.083	1.0	19.627	0.9	2.0	True	71.0	Color	n/a	twobytwo	71.0	1.644	blue	3.0	task_switch	color	switch	stim	poldrack-single-stim	s650	0	False
19.187	1.0	20.448	0.1	2.136	True	89.0	Magnitude	n/a	twobytwo	89.0	1.161	blue	7.0	task_switch	magnitude	switch	stim	poldrack-single-stim	s650	0	False
22.228	1.0	23.65	0.9	2.408	True	71.0	Magnitude	stay	twobytwo	71.0	0.522	blue	2.0	cue_stay	magnitude	stay	stim	poldrack-single-stim	s650	0	False
25.542	1.0	26.799	0.9	2.136	True	89.0	Color	n/a	twobytwo	89.0	0.357	orange	2.0	task_switch	color	switch	stim	poldrack-single-stim	s650	0	False
28.582	1.0	30.451	0.9	2.0	True	89.0	Magnitude	n/a	twobytwo	89.0	0.969	blue	8.0	task_switch	magnitude	switch	stim	poldrack-single-stim	s650	0	False
30.688	1.0	32.138	0.1	2.136	True	71.0	Orange-Blue	n/a	twobytwo	71.0	1.35	blue	2.0	task_switch	color	switch	stim	poldrack-single-stim	s650	0	False
33.729	1.0	35.286	0.9	2.272	True	89.0	Orange-Blue	stay	twobytwo	89.0	0.657	orange	8.0	cue_stay	color	stay	stim	poldrack-single-stim	s650	0	False
36.106	1.0	37.484	0.1	2.0	True	71.0	High-Low	n/a	twobytwo	71.0	1.278	blue	2.0	task_switch	magnitude	switch	stim	poldrack-single-stim	s650	0	False
38.211	1.0	40.416	0.1	2.408	False	89.0	Color	n/a	twobytwo	71.0	2.105	orange	4.0	task_switch	color	switch	stim	poldrack-single-stim	s650	0	False
40.724	1.0	41.631	0.1	2.0	True	89.0	Orange-Blue	switch	twobytwo	89.0	0.807	orange	2.0	cue_switch	color	stay	stim	poldrack-single-stim	s650	0	False
43.628	1.0	45.682	0.9	2.136	True	89.0	Magnitude	n/a	twobytwo	89.0	1.154	orange	7.0	task_switch	magnitude	switch	stim	poldrack-single-stim	s650	0	False
45.869	1.0	47.713	0.1	2.408	True	71.0	Color	n/a	twobytwo	71.0	1.744	blue	9.0	task_switch	color	switch	stim	poldrack-single-stim	s650	0	False
49.182	1.0	51.808	0.9	2.136	True	71.0	High-Low	n/a	twobytwo	71.0	1.726	blue	2.0	task_switch	magnitude	switch	stim	poldrack-single-stim	s650	0	False
52.223	1.0	54.278	0.9	2.408	True	71.0	Orange-Blue	n/a	twobytwo	71.0	1.155	blue	4.0	task_switch	color	switch	stim	poldrack-single-stim	s650	0	False
55.535	1.0	58.17	0.9	2.136	True	89.0	Magnitude	n/a	twobytwo	89.0	1.735	orange	8.0	task_switch	magnitude	switch	stim	poldrack-single-stim	s650	0	False
57.777	1.0	59.458	0.1	2.0	False	89.0	High-Low	switch	twobytwo	71.0	1.581	blue	6.0	cue_switch	magnitude	stay	stim	poldrack-single-stim	s650	0	False
59.882	1.0	61.115	0.1	2.272	False	89.0	High-Low	stay	twobytwo	71.0	1.133	blue	6.0	cue_stay	magnitude	stay	stim	poldrack-single-stim	s650	0	False
62.259	1.0	62.258	0.1	2.0	False	89.0	Orange-Blue	n/a	twobytwo	-1.0	n/a	orange	6.0	task_switch	color	switch	stim	poldrack-single-stim	s650	0	False
64.365	1.0	64.364	0.1	2.272	False	89.0	Magnitude	n/a	twobytwo	-1.0	n/a	blue	6.0	task_switch	magnitude	switch	stim	poldrack-single-stim	s650	0	False
67.542	1.0	69.393	0.9	2.272	True	89.0	High-Low	switch	twobytwo	89.0	0.951	blue	9.0	cue_switch	magnitude	stay	stim	poldrack-single-stim	s650	0	False
70.718	1.0	72.227	0.9	2.952	True	89.0	Magnitude	switch	twobytwo	89.0	0.609	blue	6.0	cue_switch	magnitude	stay	stim	poldrack-single-stim	s650	0	False
74.575	1.0	77.097	0.9	2.68	True	89.0	Magnitude	stay	twobytwo	89.0	1.622	orange	7.0	cue_stay	magnitude	stay	stim	poldrack-single-stim	s650	0	False
78.161	1.0	78.16	0.9	2.136	False	71.0	Magnitude	stay	twobytwo	-1.0	n/a	blue	4.0	cue_stay	magnitude	stay	stim	poldrack-single-stim	s650	0	False
80.402	1.0	80.401	0.1	2.272	False	89.0	Magnitude	stay	twobytwo	-1.0	n/a	blue	6.0	cue_stay	magnitude	stay	stim	poldrack-single-stim	s650	0	False
82.778	1.0	82.777	0.1	2.272	False	89.0	High-Low	switch	twobytwo	-1.0	n/a	blue	9.0	cue_switch	magnitude	stay	stim	poldrack-single-stim	s650	0	False
85.956	1.0	85.955	0.9	2.136	False	71.0	Orange-Blue	n/a	twobytwo	-1.0	n/a	blue	9.0	task_switch	color	switch	stim	poldrack-single-stim	s650	0	False
88.197	1.0	88.196	0.1	2.408	False	89.0	Color	switch	twobytwo	-1.0	n/a	orange	6.0	cue_switch	color	stay	stim	poldrack-single-stim	s650	0	False
90.709	1.0	92.135	0.1	2.136	True	71.0	Orange-Blue	switch	twobytwo	71.0	1.326	blue	7.0	cue_switch	color	stay	stim	poldrack-single-stim	s650	0	False
92.95	1.0	94.256	0.1	2.136	True	71.0	Color	switch	twobytwo	71.0	1.206	blue	8.0	cue_switch	color	stay	stim	poldrack-single-stim	s650	0	False
95.191	1.0	96.336	0.1	2.0	True	71.0	Orange-Blue	switch	twobytwo	71.0	1.045	blue	8.0	cue_switch	color	stay	stim	poldrack-single-stim	s650	0	False
97.297	1.0	98.068	0.1	2.0	True	71.0	Orange-Blue	stay	twobytwo	71.0	0.671	blue	6.0	cue_stay	color	stay	stim	poldrack-single-stim	s650	0	False
100.201	1.0	101.559	0.9	2.0	True	89.0	Color	switch	twobytwo	89.0	0.458	orange	1.0	cue_switch	color	stay	stim	poldrack-single-stim	s650	0	False
103.107	1.0	104.474	0.9	2.0	True	71.0	Orange-Blue	switch	twobytwo	71.0	0.467	blue	2.0	cue_switch	color	stay	stim	poldrack-single-stim	s650	0	False
106.013	1.0	107.39	0.9	2.0	True	89.0	Color	switch	twobytwo	89.0	0.477	orange	6.0	cue_switch	color	stay	stim	poldrack-single-stim	s650	0	False
108.918	1.0	110.712	0.9	2.272	True	71.0	Orange-Blue	switch	twobytwo	71.0	0.894	blue	8.0	cue_switch	color	stay	stim	poldrack-single-stim	s650	0	False
111.295	1.0	113.734	0.1	2.408	True	71.0	Color	switch	twobytwo	71.0	2.339	blue	4.0	cue_switch	color	stay	stim	poldrack-single-stim	s650	0	False
113.809	1.0	114.86	0.1	2.0	True	89.0	Color	stay	twobytwo	89.0	0.951	orange	8.0	cue_stay	color	stay	stim	poldrack-single-stim	s650	0	False
115.914	1.0	115.913	0.1	2.136	False	71.0	High-Low	n/a	twobytwo	-1.0	n/a	blue	3.0	task_switch	magnitude	switch	stim	poldrack-single-stim	s650	0	False
118.955	1.0	118.954	0.9	2.0	False	71.0	Magnitude	switch	twobytwo	-1.0	n/a	orange	2.0	cue_switch	magnitude	stay	stim	poldrack-single-stim	s650	0	False
121.86	1.0	123.89	0.9	2.136	True	89.0	Color	n/a	twobytwo	89.0	1.13	orange	9.0	task_switch	color	switch	stim	poldrack-single-stim	s650	0	False
124.902	1.0	126.691	0.9	2.544	True	71.0	Magnitude	n/a	twobytwo	71.0	0.889	blue	3.0	task_switch	magnitude	switch	stim	poldrack-single-stim	s650	0	False
127.551	1.0	128.963	0.1	2.68	True	71.0	Orange-Blue	n/a	twobytwo	71.0	1.312	blue	9.0	task_switch	color	switch	stim	poldrack-single-stim	s650	0	False
131.137	1.0	133.631	0.9	3.088	True	71.0	Color	switch	twobytwo	71.0	1.594	blue	6.0	cue_switch	color	stay	stim	poldrack-single-stim	s650	0	False
134.33	1.0	134.329	0.1	2.136	False	89.0	Orange-Blue	switch	twobytwo	-1.0	n/a	orange	2.0	cue_switch	color	stay	stim	poldrack-single-stim	s650	0	False
137.371	1.0	137.37	0.9	2.544	False	89.0	Color	switch	twobytwo	-1.0	n/a	orange	8.0	cue_switch	color	stay	stim	poldrack-single-stim	s650	0	False
140.021	1.0	140.02	0.1	2.0	False	89.0	Orange-Blue	switch	twobytwo	-1.0	n/a	orange	1.0	cue_switch	color	stay	stim	poldrack-single-stim	s650	0	False
142.926	1.0	144.712	0.9	2.136	True	89.0	Magnitude	n/a	twobytwo	89.0	0.886	orange	7.0	task_switch	magnitude	switch	stim	poldrack-single-stim	s650	0	False
145.967	1.0	147.411	0.9	2.0	True	71.0	Color	n/a	twobytwo	71.0	0.544	blue	1.0	task_switch	color	switch	stim	poldrack-single-stim	s650	0	False
148.073	1.0	149.845	0.1	2.408	False	71.0	High-Low	n/a	twobytwo	89.0	1.672	blue	3.0	task_switch	magnitude	switch	stim	poldrack-single-stim	s650	0	False
151.386	1.0	153.478	0.9	2.0	False	71.0	Magnitude	switch	twobytwo	89.0	1.192	orange	2.0	cue_switch	magnitude	stay	stim	poldrack-single-stim	s650	0	False
153.49	1.0	154.836	0.1	2.0	True	71.0	Magnitude	stay	twobytwo	71.0	1.246	orange	1.0	cue_stay	magnitude	stay	stim	poldrack-single-stim	s650	0	False
155.595	1.0	156.944	0.1	2.0	True	71.0	Color	n/a	twobytwo	71.0	1.249	blue	4.0	task_switch	color	switch	stim	poldrack-single-stim	s650	0	False
157.7	1.0	158.632	0.1	2.68	True	71.0	Color	stay	twobytwo	71.0	0.832	blue	7.0	cue_stay	color	stay	stim	poldrack-single-stim	s650	0	False
160.485	1.0	160.484	0.1	2.272	False	89.0	Orange-Blue	switch	twobytwo	-1.0	n/a	orange	8.0	cue_switch	color	stay	stim	poldrack-single-stim	s650	0	False
162.863	1.0	163.312	0.1	2.408	False	71.0	Orange-Blue	stay	twobytwo	89.0	0.349	blue	2.0	cue_stay	color	stay	stim	poldrack-single-stim	s650	0	False
165.377	1.0	165.376	0.1	3.224	False	89.0	Orange-Blue	stay	twobytwo	-1.0	n/a	orange	4.0	cue_stay	color	stay	stim	poldrack-single-stim	s650	0	False
169.506	1.0	169.505	0.9	2.408	False	71.0	Magnitude	n/a	twobytwo	-1.0	n/a	orange	2.0	task_switch	magnitude	switch	stim	poldrack-single-stim	s650	0	False
172.019	1.0	173.393	0.1	2.816	True	71.0	Orange-Blue	n/a	twobytwo	71.0	1.274	blue	3.0	task_switch	color	switch	stim	poldrack-single-stim	s650	0	False
174.94	1.0	174.939	0.1	2.408	False	89.0	Magnitude	n/a	twobytwo	-1.0	n/a	blue	8.0	task_switch	magnitude	switch	stim	poldrack-single-stim	s650	0	False
177.453	1.0	177.452	0.1	2.136	False	71.0	Color	n/a	twobytwo	-1.0	n/a	blue	4.0	task_switch	color	switch	stim	poldrack-single-stim	s650	0	False
180.494	1.0	180.493	0.9	2.136	False	71.0	Color	stay	twobytwo	-1.0	n/a	blue	4.0	cue_stay	color	stay	stim	poldrack-single-stim	s650	0	False
183.534	1.0	185.433	0.9	2.0	True	71.0	Orange-Blue	switch	twobytwo	71.0	0.999	blue	8.0	cue_switch	color	stay	stim	poldrack-single-stim	s650	0	False
186.44	1.0	187.901	0.9	2.0	True	89.0	Color	switch	twobytwo	89.0	0.561	orange	6.0	cue_switch	color	stay	stim	poldrack-single-stim	s650	0	False
189.345	1.0	191.373	0.9	2.272	True	71.0	Magnitude	n/a	twobytwo	71.0	1.128	orange	1.0	task_switch	magnitude	switch	stim	poldrack-single-stim	s650	0	False
192.523	1.0	194.144	0.9	2.408	True	89.0	Orange-Blue	n/a	twobytwo	89.0	0.721	orange	7.0	task_switch	color	switch	stim	poldrack-single-stim	s650	0	False
195.835	1.0	197.727	0.9	2.0	True	71.0	Magnitude	n/a	twobytwo	71.0	0.992	blue	3.0	task_switch	magnitude	switch	stim	poldrack-single-stim	s650	0	False
197.941	1.0	199.606	0.1	2.136	True	89.0	High-Low	switch	twobytwo	89.0	1.565	blue	7.0	cue_switch	magnitude	stay	stim	poldrack-single-stim	s650	0	False
200.183	1.0	200.182	0.1	2.0	False	89.0	Color	n/a	twobytwo	-1.0	n/a	orange	8.0	task_switch	color	switch	stim	poldrack-single-stim	s650	0	False
202.288	1.0	202.287	0.1	2.408	False	89.0	Magnitude	n/a	twobytwo	-1.0	n/a	blue	9.0	task_switch	magnitude	switch	stim	poldrack-single-stim	s650	0	False
204.802	1.0	204.801	0.1	2.272	False	71.0	High-Low	switch	twobytwo	-1.0	n/a	blue	4.0	cue_switch	magnitude	stay	stim	poldrack-single-stim	s650	0	False
207.979	1.0	207.978	0.9	2.0	False	71.0	Orange-Blue	n/a	twobytwo	-1.0	n/a	blue	3.0	task_switch	color	switch	stim	poldrack-single-stim	s650	0	False
210.084	1.0	210.083	0.1	2.272	False	71.0	Color	switch	twobytwo	-1.0	n/a	blue	4.0	cue_switch	color	stay	stim	poldrack-single-stim	s650	0	False
212.462	1.0	212.461	0.1	2.0	False	71.0	Magnitude	n/a	twobytwo	-1.0	n/a	orange	1.0	task_switch	magnitude	switch	stim	poldrack-single-stim	s650	0	False
215.365	1.0	215.364	0.9	2.0	False	71.0	Color	n/a	twobytwo	-1.0	n/a	blue	4.0	task_switch	color	switch	stim	poldrack-single-stim	s650	0	False
218.27	1.0	218.269	0.9	2.272	False	71.0	Color	stay	twobytwo	-1.0	n/a	blue	1.0	cue_stay	color	stay	stim	poldrack-single-stim	s650	0	False
234.957	1.0	234.956	0.9	2.136	False	89.0	Magnitude	stay	twobytwo	-1.0	n/a	orange	7.0	cue_stay	magnitude	stay	stim	poldrack-single-stim	s650	1	False
237.199	1.0	237.198	0.1	2.0	False	89.0	Color	n/a	twobytwo	-1.0	n/a	orange	2.0	task_switch	color	switch	stim	poldrack-single-stim	s650	0	False
240.104	1.0	240.103	0.9	2.0	False	89.0	Orange-Blue	switch	twobytwo	-1.0	n/a	orange	9.0	cue_switch	color	stay	stim	poldrack-single-stim	s650	0	False
242.21	1.0	243.978	0.1	2.0	True	71.0	Magnitude	n/a	twobytwo	71.0	1.668	blue	1.0	task_switch	magnitude	switch	stim	poldrack-single-stim	s650	0	False
244.315	1.0	245.321	0.1	2.0	True	71.0	Orange-Blue	n/a	twobytwo	71.0	0.906	blue	1.0	task_switch	color	switch	stim	poldrack-single-stim	s650	0	False
247.221	1.0	247.22	0.9	2.0	False	71.0	High-Low	n/a	twobytwo	-1.0	n/a	blue	3.0	task_switch	magnitude	switch	stim	poldrack-single-stim	s650	0	False
249.326	1.0	249.325	0.1	2.136	False	71.0	Orange-Blue	n/a	twobytwo	-1.0	n/a	blue	7.0	task_switch	color	switch	stim	poldrack-single-stim	s650	0	False
252.367	1.0	254.153	0.9	2.0	True	71.0	Orange-Blue	stay	twobytwo	71.0	0.886	blue	2.0	cue_stay	color	stay	stim	poldrack-single-stim	s650	0	False
255.272	1.0	255.271	0.9	2.0	False	71.0	High-Low	n/a	twobytwo	-1.0	n/a	orange	2.0	task_switch	magnitude	switch	stim	poldrack-single-stim	s650	0	False
258.179	1.0	259.993	0.9	2.136	True	71.0	Color	n/a	twobytwo	71.0	0.914	blue	8.0	task_switch	color	switch	stim	poldrack-single-stim	s650	0	False
260.42	1.0	260.419	0.1	2.0	False	71.0	Magnitude	n/a	twobytwo	-1.0	n/a	blue	2.0	task_switch	magnitude	switch	stim	poldrack-single-stim	s650	0	False
263.325	1.0	263.324	0.9	2.136	False	89.0	Magnitude	stay	twobytwo	-1.0	n/a	orange	8.0	cue_stay	magnitude	stay	stim	poldrack-single-stim	s650	0	False
265.567	1.0	265.566	0.1	2.68	False	71.0	Orange-Blue	n/a	twobytwo	-1.0	n/a	blue	2.0	task_switch	color	switch	stim	poldrack-single-stim	s650	0	False
268.352	1.0	268.351	0.1	2.272	False	71.0	Magnitude	n/a	twobytwo	-1.0	n/a	orange	4.0	task_switch	magnitude	switch	stim	poldrack-single-stim	s650	0	False
270.73	1.0	270.729	0.1	2.136	False	71.0	High-Low	switch	twobytwo	-1.0	n/a	orange	2.0	cue_switch	magnitude	stay	stim	poldrack-single-stim	s650	0	False
273.771	1.0	273.77	0.9	2.0	False	89.0	Orange-Blue	n/a	twobytwo	-1.0	n/a	orange	7.0	task_switch	color	switch	stim	poldrack-single-stim	s650	0	False
275.876	1.0	275.875	0.1	2.136	False	89.0	Magnitude	n/a	twobytwo	-1.0	n/a	blue	9.0	task_switch	magnitude	switch	stim	poldrack-single-stim	s650	0	False
278.917	1.0	278.916	0.9	2.68	False	71.0	Orange-Blue	n/a	twobytwo	-1.0	n/a	blue	2.0	task_switch	color	switch	stim	poldrack-single-stim	s650	0	False
282.502	1.0	282.501	0.9	2.272	False	71.0	High-Low	n/a	twobytwo	-1.0	n/a	blue	4.0	task_switch	magnitude	switch	stim	poldrack-single-stim	s650	0	False
285.68	1.0	285.679	0.9	2.0	False	89.0	Orange-Blue	n/a	twobytwo	-1.0	n/a	orange	8.0	task_switch	color	switch	stim	poldrack-single-stim	s650	0	False
287.784	1.0	287.783	0.1	2.0	False	71.0	Color	switch	twobytwo	-1.0	n/a	blue	6.0	cue_switch	color	stay	stim	poldrack-single-stim	s650	0	False
289.888	1.0	291.265	0.1	2.136	True	71.0	Color	stay	twobytwo	71.0	1.277	blue	6.0	cue_stay	color	stay	stim	poldrack-single-stim	s650	0	False
292.128	1.0	293.921	0.1	2.0	True	89.0	High-Low	n/a	twobytwo	89.0	1.693	orange	6.0	task_switch	magnitude	switch	stim	poldrack-single-stim	s650	0	False
294.234	1.0	295.421	0.1	2.0	True	71.0	Color	n/a	twobytwo	71.0	1.087	blue	6.0	task_switch	color	switch	stim	poldrack-single-stim	s650	0	False
297.139	1.0	298.712	0.9	2.0	True	71.0	Orange-Blue	switch	twobytwo	71.0	0.673	blue	9.0	cue_switch	color	stay	stim	poldrack-single-stim	s650	0	False
300.045	1.0	301.657	0.9	2.272	True	71.0	Color	switch	twobytwo	71.0	0.712	blue	6.0	cue_switch	color	stay	stim	poldrack-single-stim	s650	0	False
303.222	1.0	304.842	0.9	2.408	True	89.0	Color	stay	twobytwo	89.0	0.72	orange	7.0	cue_stay	color	stay	stim	poldrack-single-stim	s650	0	False
306.534	1.0	307.975	0.9	2.0	True	71.0	Color	stay	twobytwo	71.0	0.541	blue	4.0	cue_stay	color	stay	stim	poldrack-single-stim	s650	0	False
308.64	1.0	308.639	0.1	2.0	False	71.0	Color	stay	twobytwo	-1.0	n/a	blue	6.0	cue_stay	color	stay	stim	poldrack-single-stim	s650	0	False
310.745	1.0	310.744	0.1	2.0	False	71.0	Orange-Blue	switch	twobytwo	-1.0	n/a	blue	9.0	cue_switch	color	stay	stim	poldrack-single-stim	s650	0	False
313.649	1.0	313.648	0.9	2.272	False	89.0	High-Low	n/a	twobytwo	-1.0	n/a	blue	9.0	task_switch	magnitude	switch	stim	poldrack-single-stim	s650	0	False
316.026	1.0	316.025	0.1	2.136	False	89.0	Magnitude	switch	twobytwo	-1.0	n/a	orange	6.0	cue_switch	magnitude	stay	stim	poldrack-single-stim	s650	0	False
318.268	1.0	318.267	0.1	2.0	False	89.0	High-Low	switch	twobytwo	-1.0	n/a	blue	7.0	cue_switch	magnitude	stay	stim	poldrack-single-stim	s650	0	False
320.373	1.0	320.372	0.1	2.544	False	89.0	Magnitude	switch	twobytwo	-1.0	n/a	blue	8.0	cue_switch	magnitude	stay	stim	poldrack-single-stim	s650	0	False
323.021	1.0	323.02	0.1	2.272	False	89.0	High-Low	switch	twobytwo	-1.0	n/a	blue	8.0	cue_switch	magnitude	stay	stim	poldrack-single-stim	s650	0	False
325.398	1.0	325.397	0.1	2.272	False	89.0	High-Low	stay	twobytwo	-1.0	n/a	blue	6.0	cue_stay	magnitude	stay	stim	poldrack-single-stim	s650	0	False
328.575	1.0	328.574	0.9	2.0	False	71.0	Magnitude	switch	twobytwo	-1.0	n/a	orange	1.0	cue_switch	magnitude	stay	stim	poldrack-single-stim	s650	0	False
331.479	1.0	331.478	0.9	2.0	False	71.0	High-Low	switch	twobytwo	-1.0	n/a	blue	2.0	cue_switch	magnitude	stay	stim	poldrack-single-stim	s650	0	False
334.385	1.0	334.384	0.9	2.136	False	89.0	Magnitude	switch	twobytwo	-1.0	n/a	orange	6.0	cue_switch	magnitude	stay	stim	poldrack-single-stim	s650	0	False
337.429	1.0	339.207	0.9	2.0	True	89.0	High-Low	switch	twobytwo	89.0	0.878	blue	8.0	cue_switch	magnitude	stay	stim	poldrack-single-stim	s650	0	False
339.534	1.0	341.046	0.1	2.136	True	71.0	Magnitude	switch	twobytwo	71.0	1.412	blue	4.0	cue_switch	magnitude	stay	stim	poldrack-single-stim	s650	0	False
341.775	1.0	343.294	0.1	2.272	True	89.0	Magnitude	stay	twobytwo	89.0	1.419	orange	8.0	cue_stay	magnitude	stay	stim	poldrack-single-stim	s650	0	False
344.152	1.0	345.044	0.1	2.136	True	71.0	Color	n/a	twobytwo	71.0	0.792	blue	3.0	task_switch	color	switch	stim	poldrack-single-stim	s650	0	False
347.193	1.0	348.856	0.9	2.272	True	89.0	Orange-Blue	switch	twobytwo	89.0	0.763	orange	2.0	cue_switch	color	stay	stim	poldrack-single-stim	s650	0	False
350.37	1.0	350.369	0.9	2.0	False	89.0	High-Low	n/a	twobytwo	-1.0	n/a	orange	9.0	task_switch	magnitude	switch	stim	poldrack-single-stim	s650	0	False
353.275	1.0	353.274	0.9	2.816	False	71.0	Orange-Blue	n/a	twobytwo	-1.0	n/a	blue	3.0	task_switch	color	switch	stim	poldrack-single-stim	s650	0	False
356.197	1.0	356.196	0.1	2.408	False	89.0	High-Low	n/a	twobytwo	-1.0	n/a	blue	9.0	task_switch	magnitude	switch	stim	poldrack-single-stim	s650	0	False
359.51	1.0	361.633	0.9	2.0	True	89.0	Magnitude	switch	twobytwo	89.0	1.223	blue	6.0	cue_switch	magnitude	stay	stim	poldrack-single-stim	s650	0	False
361.616	1.0	362.653	0.1	2.544	True	71.0	High-Low	switch	twobytwo	71.0	0.937	orange	2.0	cue_switch	magnitude	stay	stim	poldrack-single-stim	s650	0	False
365.064	1.0	367.5	0.9	2.136	True	89.0	Magnitude	switch	twobytwo	89.0	1.536	orange	8.0	cue_switch	magnitude	stay	stim	poldrack-single-stim	s650	0	False
367.306	1.0	367.305	0.1	2.0	False	71.0	High-Low	switch	twobytwo	-1.0	n/a	orange	1.0	cue_switch	magnitude	stay	stim	poldrack-single-stim	s650	0	False
370.21	1.0	370.209	0.9	2.0	False	89.0	Orange-Blue	n/a	twobytwo	-1.0	n/a	orange	7.0	task_switch	color	switch	stim	poldrack-single-stim	s650	0	False
373.114	1.0	373.113	0.9	2.136	False	71.0	High-Low	n/a	twobytwo	-1.0	n/a	blue	1.0	task_switch	magnitude	switch	stim	poldrack-single-stim	s650	0	False
375.354	1.0	375.353	0.1	2.136	False	71.0	Color	n/a	twobytwo	-1.0	n/a	blue	3.0	task_switch	color	switch	stim	poldrack-single-stim	s650	0	False
378.396	1.0	381.056	0.9	2.272	True	89.0	Orange-Blue	switch	twobytwo	89.0	1.76	orange	2.0	cue_switch	color	stay	stim	poldrack-single-stim	s650	0	False
380.773	1.0	381.665	0.1	3.224	True	89.0	Orange-Blue	stay	twobytwo	89.0	0.792	orange	1.0	cue_stay	color	stay	stim	poldrack-single-stim	s650	0	False
384.103	1.0	384.102	0.1	2.0	False	71.0	High-Low	n/a	twobytwo	-1.0	n/a	blue	4.0	task_switch	magnitude	switch	stim	poldrack-single-stim	s650	0	False
386.208	1.0	386.207	0.1	2.0	False	89.0	High-Low	stay	twobytwo	-1.0	n/a	blue	7.0	cue_stay	magnitude	stay	stim	poldrack-single-stim	s650	0	False
388.313	1.0	388.312	0.1	2.272	False	89.0	Magnitude	switch	twobytwo	-1.0	n/a	orange	8.0	cue_switch	magnitude	stay	stim	poldrack-single-stim	s650	0	False
390.691	1.0	390.69	0.1	2.136	False	71.0	Magnitude	stay	twobytwo	-1.0	n/a	blue	2.0	cue_stay	magnitude	stay	stim	poldrack-single-stim	s650	0	False
392.932	1.0	392.931	0.1	2.0	False	71.0	Magnitude	stay	twobytwo	-1.0	n/a	orange	4.0	cue_stay	magnitude	stay	stim	poldrack-single-stim	s650	0	False
395.836	1.0	395.835	0.9	2.0	False	89.0	Orange-Blue	n/a	twobytwo	-1.0	n/a	orange	2.0	task_switch	color	switch	stim	poldrack-single-stim	s650	0	False
397.94	1.0	397.939	0.1	2.0	False	71.0	High-Low	n/a	twobytwo	-1.0	n/a	blue	3.0	task_switch	magnitude	switch	stim	poldrack-single-stim	s650	0	False
400.044	1.0	400.043	0.1	2.68	False	71.0	Color	n/a	twobytwo	-1.0	n/a	blue	8.0	task_switch	color	switch	stim	poldrack-single-stim	s650	0	False
402.83	1.0	402.829	0.1	2.0	False	71.0	High-Low	n/a	twobytwo	-1.0	n/a	blue	4.0	task_switch	magnitude	switch	stim	poldrack-single-stim	s650	0	False
405.734	1.0	405.733	0.9	2.272	False	71.0	High-Low	stay	twobytwo	-1.0	n/a	blue	4.0	cue_stay	magnitude	stay	stim	poldrack-single-stim	s650	0	False
408.914	1.0	408.913	0.9	2.0	False	89.0	Magnitude	switch	twobytwo	-1.0	n/a	blue	8.0	cue_switch	magnitude	stay	stim	poldrack-single-stim	s650	0	False
411.819	1.0	411.818	0.9	2.272	False	89.0	High-Low	switch	twobytwo	-1.0	n/a	orange	6.0	cue_switch	magnitude	stay	stim	poldrack-single-stim	s650	0	False
414.996	1.0	414.995	0.9	2.952	False	89.0	Orange-Blue	n/a	twobytwo	-1.0	n/a	orange	1.0	task_switch	color	switch	stim	poldrack-single-stim	s650	0	False
418.854	1.0	418.853	0.9	2.0	False	89.0	Magnitude	n/a	twobytwo	-1.0	n/a	orange	7.0	task_switch	magnitude	switch	stim	poldrack-single-stim	s650	0	False
421.758	1.0	423.833	0.9	2.0	True	71.0	Orange-Blue	n/a	twobytwo	71.0	1.175	blue	3.0	task_switch	color	switch	stim	poldrack-single-stim	s650	0	False
423.864	1.0	425.127	0.1	2.0	True	71.0	Color	switch	twobytwo	71.0	1.163	blue	7.0	cue_switch	color	stay	stim	poldrack-single-stim	s650	0	False
425.967	1.0	425.966	0.1	2.0	False	89.0	High-Low	n/a	twobytwo	-1.0	n/a	orange	8.0	task_switch	magnitude	switch	stim	poldrack-single-stim	s650	0	False
428.072	1.0	428.071	0.1	2.136	False	71.0	Color	n/a	twobytwo	-1.0	n/a	blue	9.0	task_switch	color	switch	stim	poldrack-single-stim	s650	0	False
430.314	1.0	432.044	0.1	2.0	True	71.0	Orange-Blue	switch	twobytwo	71.0	1.63	blue	4.0	cue_switch	color	stay	stim	poldrack-single-stim	s650	0	False
433.218	1.0	433.217	0.9	2.0	False	71.0	Magnitude	n/a	twobytwo	-1.0	n/a	blue	3.0	task_switch	magnitude	switch	stim	poldrack-single-stim	s650	0	False
435.323	1.0	435.322	0.1	2.0	False	71.0	High-Low	switch	twobytwo	-1.0	n/a	blue	4.0	cue_switch	magnitude	stay	stim	poldrack-single-stim	s650	0	False
437.428	1.0	437.427	0.1	2.272	False	89.0	Color	n/a	twobytwo	-1.0	n/a	orange	1.0	task_switch	color	switch	stim	poldrack-single-stim	s650	0	False
440.605	1.0	440.604	0.9	2.136	False	71.0	Magnitude	n/a	twobytwo	-1.0	n/a	blue	4.0	task_switch	magnitude	switch	stim	poldrack-single-stim	s650	0	False
443.646	1.0	443.645	0.9	2.0	False	71.0	Magnitude	stay	twobytwo	-1.0	n/a	blue	1.0	cue_stay	magnitude	stay	stim	poldrack-single-stim	s650	0	False
460.062	1.0	460.061	0.9	2.136	False	89.0	Color	stay	twobytwo	-1.0	n/a	orange	7.0	cue_stay	color	stay	stim	poldrack-single-stim	s650	1	False
462.303	1.0	462.302	0.1	2.816	False	71.0	High-Low	n/a	twobytwo	-1.0	n/a	orange	2.0	task_switch	magnitude	switch	stim	poldrack-single-stim	s650	0	False
466.025	1.0	466.024	0.9	2.408	False	89.0	Magnitude	switch	twobytwo	-1.0	n/a	orange	9.0	cue_switch	magnitude	stay	stim	poldrack-single-stim	s650	0	False
468.538	1.0	468.537	0.1	2.0	False	71.0	Color	n/a	twobytwo	-1.0	n/a	blue	1.0	task_switch	color	switch	stim	poldrack-single-stim	s650	0	False
470.644	1.0	472.151	0.1	2.136	True	71.0	Magnitude	n/a	twobytwo	71.0	1.407	blue	1.0	task_switch	magnitude	switch	stim	poldrack-single-stim	s650	0	False
473.686	1.0	475.493	0.9	2.136	True	71.0	Color	n/a	twobytwo	71.0	0.907	blue	3.0	task_switch	color	switch	stim	poldrack-single-stim	s650	0	False
475.926	1.0	477.253	0.1	2.136	True	89.0	Magnitude	n/a	twobytwo	89.0	1.227	blue	7.0	task_switch	magnitude	switch	stim	poldrack-single-stim	s650	0	False
478.969	1.0	480.677	0.9	2.544	True	71.0	Magnitude	stay	twobytwo	71.0	0.808	blue	2.0	cue_stay	magnitude	stay	stim	poldrack-single-stim	s650	0	False
482.418	1.0	482.417	0.9	2.136	False	89.0	Color	n/a	twobytwo	-1.0	n/a	orange	2.0	task_switch	color	switch	stim	poldrack-single-stim	s650	0	False
485.459	1.0	487.643	0.9	2.0	True	89.0	Magnitude	n/a	twobytwo	89.0	1.284	blue	8.0	task_switch	magnitude	switch	stim	poldrack-single-stim	s650	0	False
487.563	1.0	487.562	0.1	2.0	False	71.0	Orange-Blue	n/a	twobytwo	-1.0	n/a	blue	2.0	task_switch	color	switch	stim	poldrack-single-stim	s650	0	False
490.468	1.0	490.467	0.9	2.0	False	89.0	Orange-Blue	stay	twobytwo	-1.0	n/a	orange	8.0	cue_stay	color	stay	stim	poldrack-single-stim	s650	0	False
492.573	1.0	492.572	0.1	2.0	False	71.0	High-Low	n/a	twobytwo	-1.0	n/a	blue	2.0	task_switch	magnitude	switch	stim	poldrack-single-stim	s650	0	False
494.678	1.0	494.677	0.1	2.136	False	89.0	Orange-Blue	n/a	twobytwo	-1.0	n/a	orange	4.0	task_switch	color	switch	stim	poldrack-single-stim	s650	0	False
496.92	1.0	496.919	0.1	2.0	False	89.0	Color	switch	twobytwo	-1.0	n/a	orange	2.0	cue_switch	color	stay	stim	poldrack-single-stim	s650	0	False
499.824	1.0	499.823	0.9	2.0	False	89.0	Magnitude	n/a	twobytwo	-1.0	n/a	orange	7.0	task_switch	magnitude	switch	stim	poldrack-single-stim	s650	0	False
501.929	1.0	501.928	0.1	2.0	False	71.0	Orange-Blue	n/a	twobytwo	-1.0	n/a	blue	9.0	task_switch	color	switch	stim	poldrack-single-stim	s650	0	False
504.834	1.0	507.534	0.9	2.136	False	71.0	High-Low	n/a	twobytwo	89.0	1.8	blue	2.0	task_switch	magnitude	switch	stim	poldrack-single-stim	s650	0	False
507.875	1.0	510.3	0.9	2.136	True	71.0	Orange-Blue	n/a	twobytwo	71.0	1.525	blue	4.0	task_switch	color	switch	stim	poldrack-single-stim	s650	0	False
510.916	1.0	513.316	0.9	2.136	True	89.0	Magnitude	n/a	twobytwo	89.0	1.5	orange	8.0	task_switch	magnitude	switch	stim	poldrack-single-stim	s650	0	False
513.157	1.0	514.773	0.1	2.136	False	89.0	High-Low	switch	twobytwo	71.0	1.516	blue	6.0	cue_switch	magnitude	stay	stim	poldrack-single-stim	s650	0	False
515.397	1.0	516.634	0.1	2.68	True	89.0	High-Low	stay	twobytwo	89.0	1.137	blue	6.0	cue_stay	magnitude	stay	stim	poldrack-single-stim	s650	0	False
518.182	1.0	520.696	0.1	2.544	True	89.0	Orange-Blue	n/a	twobytwo	89.0	2.414	orange	6.0	task_switch	color	switch	stim	poldrack-single-stim	s650	0	False
520.831	1.0	521.835	0.1	2.272	True	89.0	Magnitude	n/a	twobytwo	89.0	0.904	blue	6.0	task_switch	magnitude	switch	stim	poldrack-single-stim	s650	0	False
524.008	1.0	524.007	0.9	2.272	False	89.0	High-Low	switch	twobytwo	-1.0	n/a	blue	9.0	cue_switch	magnitude	stay	stim	poldrack-single-stim	s650	0	False
527.185	1.0	527.184	0.9	2.408	False	89.0	Magnitude	switch	twobytwo	-1.0	n/a	blue	6.0	cue_switch	magnitude	stay	stim	poldrack-single-stim	s650	0	False
530.499	1.0	530.498	0.9	2.136	False	89.0	Magnitude	stay	twobytwo	-1.0	n/a	orange	7.0	cue_stay	magnitude	stay	stim	poldrack-single-stim	s650	0	False
533.541	1.0	533.54	0.9	2.272	False	71.0	Magnitude	stay	twobytwo	-1.0	n/a	blue	4.0	cue_stay	magnitude	stay	stim	poldrack-single-stim	s650	0	False
535.918	1.0	535.917	0.1	2.0	False	89.0	Magnitude	stay	twobytwo	-1.0	n/a	blue	6.0	cue_stay	magnitude	stay	stim	poldrack-single-stim	s650	0	False
538.024	1.0	538.023	0.1	2.136	False	89.0	High-Low	switch	twobytwo	-1.0	n/a	blue	9.0	cue_switch	magnitude	stay	stim	poldrack-single-stim	s650	0	False
541.064	1.0	541.063	0.9	2.272	False	71.0	Orange-Blue	n/a	twobytwo	-1.0	n/a	blue	9.0	task_switch	color	switch	stim	poldrack-single-stim	s650	0	False
543.442	1.0	543.441	0.1	2.0	False	89.0	Color	switch	twobytwo	-1.0	n/a	orange	6.0	cue_switch	color	stay	stim	poldrack-single-stim	s650	0	False
545.548	1.0	545.547	0.1	2.68	False	71.0	Orange-Blue	switch	twobytwo	-1.0	n/a	blue	7.0	cue_switch	color	stay	stim	poldrack-single-stim	s650	0	False
548.333	1.0	548.332	0.1	2.0	False	71.0	Color	switch	twobytwo	-1.0	n/a	blue	8.0	cue_switch	color	stay	stim	poldrack-single-stim	s650	0	False
550.437	1.0	551.83	0.1	2.0	False	71.0	Orange-Blue	switch	twobytwo	89.0	1.293	blue	8.0	cue_switch	color	stay	stim	poldrack-single-stim	s650	0	False
552.543	1.0	552.542	0.1	2.0	False	71.0	Orange-Blue	stay	twobytwo	-1.0	n/a	blue	6.0	cue_stay	color	stay	stim	poldrack-single-stim	s650	0	False
555.449	1.0	555.448	0.9	2.272	False	89.0	Color	switch	twobytwo	-1.0	n/a	orange	1.0	cue_switch	color	stay	stim	poldrack-single-stim	s650	0	False
558.625	1.0	558.624	0.9	2.0	False	71.0	Orange-Blue	switch	twobytwo	-1.0	n/a	blue	2.0	cue_switch	color	stay	stim	poldrack-single-stim	s650	0	False
561.531	1.0	561.53	0.9	2.0	False	89.0	Color	switch	twobytwo	-1.0	n/a	orange	6.0	cue_switch	color	stay	stim	poldrack-single-stim	s650	0	False
564.436	1.0	564.435	0.9	2.0	False	71.0	Orange-Blue	switch	twobytwo	-1.0	n/a	blue	8.0	cue_switch	color	stay	stim	poldrack-single-stim	s650	0	False
566.542	1.0	566.541	0.1	2.68	False	71.0	Color	switch	twobytwo	-1.0	n/a	blue	4.0	cue_switch	color	stay	stim	poldrack-single-stim	s650	0	False
569.328	1.0	569.327	0.1	2.0	False	89.0	Color	stay	twobytwo	-1.0	n/a	orange	8.0	cue_stay	color	stay	stim	poldrack-single-stim	s650	0	False
571.433	1.0	571.432	0.1	2.136	False	71.0	High-Low	n/a	twobytwo	-1.0	n/a	blue	3.0	task_switch	magnitude	switch	stim	poldrack-single-stim	s650	0	False
574.475	1.0	574.474	0.9	2.408	False	71.0	Magnitude	switch	twobytwo	-1.0	n/a	orange	2.0	cue_switch	magnitude	stay	stim	poldrack-single-stim	s650	0	False
577.789	1.0	577.788	0.9	2.136	False	89.0	Orange-Blue	n/a	twobytwo	-1.0	n/a	orange	9.0	task_switch	color	switch	stim	poldrack-single-stim	s650	0	False
580.831	1.0	580.83	0.9	2.0	False	71.0	High-Low	n/a	twobytwo	-1.0	n/a	blue	3.0	task_switch	magnitude	switch	stim	poldrack-single-stim	s650	0	False
582.937	1.0	582.936	0.1	2.0	False	71.0	Orange-Blue	n/a	twobytwo	-1.0	n/a	blue	9.0	task_switch	color	switch	stim	poldrack-single-stim	s650	0	False
585.843	1.0	585.842	0.9	2.544	False	71.0	Color	switch	twobytwo	-1.0	n/a	blue	6.0	cue_switch	color	stay	stim	poldrack-single-stim	s650	0	False
588.492	1.0	588.491	0.1	2.136	False	89.0	Orange-Blue	switch	twobytwo	-1.0	n/a	orange	2.0	cue_switch	color	stay	stim	poldrack-single-stim	s650	0	False
591.533	1.0	591.532	0.9	2.544	False	89.0	Color	switch	twobytwo	-1.0	n/a	orange	8.0	cue_switch	color	stay	stim	poldrack-single-stim	s650	0	False
594.182	1.0	594.181	0.1	2.68	False	89.0	Orange-Blue	switch	twobytwo	-1.0	n/a	orange	1.0	cue_switch	color	stay	stim	poldrack-single-stim	s650	0	False
597.767	1.0	599.966	0.9	2.0	False	89.0	Magnitude	n/a	twobytwo	71.0	1.299	orange	7.0	task_switch	magnitude	switch	stim	poldrack-single-stim	s650	0	False
600.672	1.0	602.204	0.9	2.272	True	71.0	Color	n/a	twobytwo	71.0	0.632	blue	1.0	task_switch	color	switch	stim	poldrack-single-stim	s650	0	False
603.049	1.0	603.048	0.1	3.088	False	71.0	High-Low	n/a	twobytwo	-1.0	n/a	blue	3.0	task_switch	magnitude	switch	stim	poldrack-single-stim	s650	0	False
607.042	1.0	609.029	0.9	2.0	False	71.0	Magnitude	switch	twobytwo	89.0	1.087	orange	2.0	cue_switch	magnitude	stay	stim	poldrack-single-stim	s650	0	False
609.149	1.0	610.386	0.1	2.136	False	71.0	Magnitude	stay	twobytwo	89.0	1.137	orange	1.0	cue_stay	magnitude	stay	stim	poldrack-single-stim	s650	0	False
611.39	1.0	613.393	0.1	2.136	True	71.0	Color	n/a	twobytwo	71.0	1.903	blue	4.0	task_switch	color	switch	stim	poldrack-single-stim	s650	0	False
613.631	1.0	613.63	0.1	2.0	False	71.0	Color	stay	twobytwo	-1.0	n/a	blue	7.0	cue_stay	color	stay	stim	poldrack-single-stim	s650	0	False
615.737	1.0	615.736	0.1	2.272	False	89.0	Orange-Blue	switch	twobytwo	-1.0	n/a	orange	8.0	cue_switch	color	stay	stim	poldrack-single-stim	s650	0	False
618.114	1.0	618.984	0.1	2.0	True	71.0	Orange-Blue	stay	twobytwo	71.0	0.77	blue	2.0	cue_stay	color	stay	stim	poldrack-single-stim	s650	0	False
620.218	1.0	621.924	0.1	2.136	False	89.0	Orange-Blue	stay	twobytwo	71.0	1.606	orange	4.0	cue_stay	color	stay	stim	poldrack-single-stim	s650	0	False
623.259	1.0	625.316	0.9	2.136	True	71.0	Magnitude	n/a	twobytwo	71.0	1.157	orange	2.0	task_switch	magnitude	switch	stim	poldrack-single-stim	s650	0	False
625.501	1.0	626.389	0.1	2.544	False	71.0	Orange-Blue	n/a	twobytwo	89.0	0.788	blue	3.0	task_switch	color	switch	stim	poldrack-single-stim	s650	0	False
628.151	1.0	629.519	0.1	2.0	True	89.0	High-Low	n/a	twobytwo	89.0	1.268	blue	8.0	task_switch	magnitude	switch	stim	poldrack-single-stim	s650	0	False
630.256	1.0	631.5	0.1	2.136	True	71.0	Orange-Blue	n/a	twobytwo	71.0	1.144	blue	4.0	task_switch	color	switch	stim	poldrack-single-stim	s650	0	False
633.297	1.0	634.833	0.9	2.136	True	71.0	Orange-Blue	stay	twobytwo	71.0	0.636	blue	4.0	cue_stay	color	stay	stim	poldrack-single-stim	s650	0	False
636.339	1.0	637.855	0.9	2.136	True	71.0	Color	switch	twobytwo	71.0	0.616	blue	8.0	cue_switch	color	stay	stim	poldrack-single-stim	s650	0	False
639.38	1.0	640.994	0.9	2.0	True	89.0	Orange-Blue	switch	twobytwo	89.0	0.714	orange	6.0	cue_switch	color	stay	stim	poldrack-single-stim	s650	0	False
642.286	1.0	644.172	0.9	2.136	True	71.0	High-Low	n/a	twobytwo	71.0	0.986	orange	1.0	task_switch	magnitude	switch	stim	poldrack-single-stim	s650	0	False
645.326	1.0	647.197	0.9	2.0	True	89.0	Orange-Blue	n/a	twobytwo	89.0	0.971	orange	7.0	task_switch	color	switch	stim	poldrack-single-stim	s650	0	False
648.232	1.0	649.889	0.9	2.136	True	71.0	High-Low	n/a	twobytwo	71.0	0.757	blue	3.0	task_switch	magnitude	switch	stim	poldrack-single-stim	s650	0	False
650.474	1.0	651.492	0.1	2.816	True	89.0	Magnitude	switch	twobytwo	89.0	0.918	blue	7.0	cue_switch	magnitude	stay	stim	poldrack-single-stim	s650	0	False
653.395	1.0	655.095	0.1	2.136	True	89.0	Orange-Blue	n/a	twobytwo	89.0	1.6	orange	8.0	task_switch	color	switch	stim	poldrack-single-stim	s650	0	False
655.636	1.0	656.974	0.1	2.0	True	89.0	Magnitude	n/a	twobytwo	89.0	1.238	blue	9.0	task_switch	magnitude	switch	stim	poldrack-single-stim	s650	0	False
657.742	1.0	658.796	0.1	2.0	True	71.0	High-Low	switch	twobytwo	71.0	0.954	blue	4.0	cue_switch	magnitude	stay	stim	poldrack-single-stim	s650	0	False
660.647	1.0	662.08	0.9	2.272	True	71.0	Orange-Blue	n/a	twobytwo	71.0	0.533	blue	3.0	task_switch	color	switch	stim	poldrack-single-stim	s650	0	False
663.023	1.0	664.343	0.1	2.0	False	71.0	Color	switch	twobytwo	89.0	1.22	blue	4.0	cue_switch	color	stay	stim	poldrack-single-stim	s650	0	False
665.127	1.0	666.3	0.1	2.0	True	71.0	Magnitude	n/a	twobytwo	71.0	1.073	orange	1.0	task_switch	magnitude	switch	stim	poldrack-single-stim	s650	0	False
668.031	1.0	669.774	0.9	2.0	False	71.0	Color	n/a	twobytwo	89.0	0.843	blue	4.0	task_switch	color	switch	stim	poldrack-single-stim	s650	0	False
670.937	1.0	672.349	0.9	2.408	True	71.0	Color	stay	twobytwo	71.0	0.512	blue	1.0	cue_stay	color	stay	stim	poldrack-single-stim	s650	0	False
